subjno	age	gender	isPractice	viewdist	CmToPixX	CmToPixY	SOA_frm	SOA_time	targNum	targID	targExample	targRace	targGender	firstTargPos	contrast	familiarity	curr_staircase	iStair	TrialNum	BlockNum	blktrl	sessionNum	TC_FIXATION	TC_RSVP_START	TC_RSVP_END	TC_BLANK	TC_RESPONSE_ONSET	RT2afc	resp_2afc	acc	RSVPOnsetVBL	RSVPOnsetTime	RSVPOffsetVBL	RSVPOffsetTime	startrt_2afc
18	18	0	0	90	36.1581920903955	36.241610738255	9	0.300019284049049	2	2	1	NaN	1	5	0.191111655185609	0	1	NaN	1	1	1	2	120	220	320	NaN	520	0.954410574166104	1	1	NaN	1364449.6809165	NaN	1364450.6641457	1364451.19726663
18	18	0	0	90	36.1581920903955	36.241610738255	13	0.433361188070849	2	4	4	NaN	1	3	0.191111655185609	0	1	NaN	2	1	2	2	120	220	320	NaN	520	0.133233526488766	1	1	NaN	1364452.9978768	NaN	1364453.98114	1364454.51427247
18	18	0	0	90	36.1581920903955	36.241610738255	14	0.466696664076299	2	8	6	NaN	2	3	0.191111655185609	0	1	NaN	3	1	3	2	120	220	320	NaN	520	1.06507919519208	2	1	NaN	1364455.7145469	NaN	1364456.6979954	1364457.2145253
18	18	0	0	90	36.1581920903955	36.241610738255	20	0.666709520108998	2	4	6	NaN	1	3	0.191111655185609	0	1	NaN	4	1	4	2	120	220	320	NaN	520	0.305033568758518	1	1	NaN	1364459.0982554	NaN	1364460.0816414	1364460.59819353
18	18	0	0	90	36.1581920903955	36.241610738255	0	0	1	6	1	NaN	1	4	0.191111655185609	0	1	NaN	5	1	5	2	110	210	310	NaN	510	0.0481371688656509	1	1	NaN	1364461.7151717	NaN	1364462.6985806	1364463.21512133
18	18	0	0	90	36.1581920903955	36.241610738255	22	0.733380472119898	2	8	4	NaN	2	3	0.191111655185609	0	1	NaN	6	1	6	2	120	220	320	NaN	520	0.503030168591067	1	0	NaN	1364465.3321895	NaN	1364466.3155897	1364466.83214303
18	18	0	0	90	36.1581920903955	36.241610738255	17	0.566703092092648	2	9	5	NaN	2	5	0.191111655185609	0	1	NaN	7	1	7	2	120	220	320	NaN	520	1.37419932149351	2	1	NaN	1364468.1491576	NaN	1364469.1325892	1364469.64908878
18	18	0	0	90	36.1581920903955	36.241610738255	19	0.633374044103548	2	4	5	NaN	1	3	0.191111655185609	0	1	NaN	8	1	8	2	120	220	320	NaN	520	0.545671368949115	2	0	NaN	1364471.8495081	NaN	1364472.8328778	1364473.34944573
18	18	0	0	90	36.1581920903955	36.241610738255	23	0.766715948125348	2	9	6	NaN	2	5	0.191111655185609	0	1	NaN	9	1	9	2	120	220	320	NaN	520	0.0104154688306153	2	1	NaN	1364474.7164497	NaN	1364475.6998483	1364476.21639073
18	18	0	0	90	36.1581920903955	36.241610738255	8	0.266683808043599	2	10	3	NaN	2	5	0.191111655185609	0	1	NaN	10	1	10	2	120	220	320	NaN	520	0.415712058311328	2	1	NaN	1364477.0833555	NaN	1364478.0667306	1364478.58329724
18	18	0	0	90	36.1581920903955	36.241610738255	23	0.766715948125348	2	9	2	NaN	2	4	0.191111655185609	0	1	NaN	11	1	11	2	120	220	320	NaN	520	1.21834714780562	2	1	NaN	1364479.8169359	NaN	1364480.8003966	1364481.31688935
18	18	0	0	90	36.1581920903955	36.241610738255	25	0.833386900136247	2	8	1	NaN	2	3	0.191111655185609	0	1	NaN	12	1	12	2	120	220	320	NaN	520	0.580990068847314	1	0	NaN	1364483.3504868	NaN	1364484.3340067	1364484.85057503
18	18	0	0	90	36.1581920903955	36.241610738255	22	0.733380472119898	2	3	6	NaN	1	3	0.191111655185609	0	1	NaN	13	1	13	2	120	220	320	NaN	520	0.208380969008431	1	1	NaN	1364486.2509194	NaN	1364487.2343081	1364487.75085693
18	18	0	0	90	36.1581920903955	36.241610738255	0	0	1	12	3	NaN	2	4	0.191111655185609	0	1	NaN	14	1	14	2	110	210	310	NaN	510	0.0104079688899219	2	1	NaN	1364488.8677093	NaN	1364489.8512209	1364490.36778723
18	18	0	0	90	36.1581920903955	36.241610738255	24	0.800051424130797	2	5	6	NaN	1	3	0.191111655185609	0	1	NaN	15	1	15	2	120	220	320	NaN	520	0.113834368763492	1	1	NaN	1364491.2014161	NaN	1364492.1848178	1364492.70134193
18	18	0	0	90	36.1581920903955	36.241610738255	18	0.600038568098098	2	11	4	NaN	2	5	0.191111655185609	0	1	NaN	16	1	16	2	120	220	320	NaN	520	0.0104131686966866	2	1	NaN	1364493.6349725	NaN	1364494.6183584	1364495.13491703
18	18	0	0	90	36.1581920903955	36.241610738255	20	0.666709520108998	2	3	2	NaN	1	5	0.191111655185609	0	1	NaN	17	1	17	2	120	220	320	NaN	520	1.43467952148058	1	1	NaN	1364495.9685418	NaN	1364496.9519235	1364497.46847598
18	18	0	0	90	36.1581920903955	36.241610738255	24	0.800051424130797	2	6	3	NaN	1	5	0.191111655185609	0	1	NaN	18	1	18	2	120	220	320	NaN	520	1.26874546892941	1	1	NaN	1364499.7187824	NaN	1364500.7023336	1364501.21885133
18	18	0	0	90	36.1581920903955	36.241610738255	9	0.300019284049049	2	9	2	NaN	2	4	0.191111655185609	0	1	NaN	19	1	19	2	120	220	320	NaN	520	0.0104173689614981	2	1	NaN	1364503.3025884	NaN	1364504.2859914	1364504.80252993
18	18	0	0	90	36.1581920903955	36.241610738255	19	0.633374044103548	2	5	6	NaN	1	4	0.191111655185609	0	1	NaN	20	1	20	2	120	220	320	NaN	520	0.0104247687850147	1	1	NaN	1364505.6361486	NaN	1364506.6195397	1364507.13610303
18	18	0	0	90	36.1581920903955	36.241610738255	18	0.600038568098098	2	3	3	NaN	1	3	0.191111655185609	0	1	NaN	21	1	21	2	120	220	320	NaN	520	0.0104404636658728	1	1	NaN	1364508.2197067	NaN	1364509.2031268	1364509.71968594
18	18	0	0	90	36.1581920903955	36.241610738255	23	0.766715948125348	2	3	4	NaN	1	4	0.191111655185609	0	1	NaN	22	1	22	2	120	220	320	NaN	520	0.010415768949315	1	1	NaN	1364510.5533091	NaN	1364511.5366827	1364512.05324213
18	18	0	0	90	36.1581920903955	36.241610738255	20	0.666709520108998	2	6	2	NaN	1	5	0.191111655185609	0	1	NaN	23	1	23	2	120	220	320	NaN	520	0.0103972214274108	1	1	NaN	1364512.886862	NaN	1364513.8702629	1364514.38681328
18	18	0	0	90	36.1581920903955	36.241610738255	18	0.600038568098098	2	11	5	NaN	2	3	0.191111655185609	0	1	NaN	24	1	24	2	120	220	320	NaN	520	0.0104111689142883	2	1	NaN	1364515.2204219	NaN	1364516.2038137	1364516.72036603
18	18	0	0	90	36.1581920903955	36.241610738255	15	0.500032140081748	2	12	4	NaN	2	4	0.191111655185609	0	1	NaN	25	1	25	2	120	220	320	NaN	520	0.308003021404147	2	1	NaN	1364517.6873143	NaN	1364518.6707339	1364519.18728838
18	18	0	0	90	36.1581920903955	36.241610738255	17	0.566703092092648	2	6	4	NaN	1	3	0.191111655185609	0	1	NaN	26	1	26	2	120	220	320	NaN	520	0.0662888686638325	1	1	NaN	1364520.3209291	NaN	1364521.3043221	1364521.82087133
18	18	0	0	90	36.1581920903955	36.241610738255	9	0.300019284049049	2	7	2	NaN	2	5	0.191111655185609	0	1	NaN	27	1	27	2	120	220	320	NaN	520	1.35340226884	2	1	NaN	1364523.137899	NaN	1364524.1212651	1364524.63781023
18	18	0	0	90	36.1581920903955	36.241610738255	15	0.500032140081748	2	3	1	NaN	1	5	0.191111655185609	0	1	NaN	28	1	28	2	120	220	320	NaN	520	0.270288774045184	1	1	NaN	1364526.8049162	NaN	1364527.7882886	1364528.30483823
18	18	0	0	90	36.1581920903955	36.241610738255	10	0.333354760054499	2	11	4	NaN	2	3	0.191111655185609	0	1	NaN	29	1	29	2	120	220	320	NaN	520	0.0308214214164764	2	1	NaN	1364529.3884636	NaN	1364530.3718947	1364530.88843448
18	18	0	0	90	36.1581920903955	36.241610738255	19	0.633374044103548	2	8	1	NaN	2	4	0.191111655185609	0	1	NaN	30	1	30	2	120	220	320	NaN	520	0.0166057369206101	1	0	NaN	1364531.7387139	NaN	1364532.7220962	1364533.23866006
18	18	0	0	90	36.1581920903955	36.241610738255	10	0.333354760054499	2	6	5	NaN	1	3	0.191111655185609	0	1	NaN	31	1	31	2	120	220	320	NaN	520	0.171097268816084	1	1	NaN	1364534.0722586	NaN	1364535.0556764	1364535.57221603
18	18	0	0	90	36.1581920903955	36.241610738255	12	0.400025712065399	2	6	4	NaN	1	5	0.191111655185609	0	1	NaN	32	1	32	2	120	220	320	NaN	520	0.010412068804726	1	1	NaN	1364536.5557252	NaN	1364537.5392453	1364538.05579773
18	18	0	0	90	36.1581920903955	36.241610738255	0	0	1	6	6	NaN	1	4	0.191111655185609	0	1	NaN	33	1	33	2	110	210	310	NaN	510	0.0577143740374595	1	1	NaN	1364538.8894058	NaN	1364539.8728119	1364540.38936023
18	18	0	0	90	36.1581920903955	36.241610738255	10	0.333354760054499	2	9	2	NaN	2	5	0.191111655185609	0	1	NaN	34	1	34	2	120	220	320	NaN	520	0.0103786741383374	2	1	NaN	1364541.2729949	NaN	1364542.2563754	1364542.77293213
18	18	0	0	90	36.1581920903955	36.241610738255	8	0.266683808043599	2	8	6	NaN	2	4	0.191111655185609	0	1	NaN	35	1	35	2	120	220	320	NaN	520	0.0129492687992752	1	0	NaN	1364543.6065516	NaN	1364544.5899431	1364545.10648693
18	18	0	0	90	36.1581920903955	36.241610738255	20	0.666709520108998	2	12	1	NaN	2	4	0.191111655185609	0	1	NaN	36	1	36	2	120	220	320	NaN	520	0.0234000214841217	2	1	NaN	1364545.940111	NaN	1364546.9234918	1364547.44004948
18	18	0	0	90	36.1581920903955	36.241610738255	24	0.800051424130797	2	12	3	NaN	2	4	0.191111655185609	0	1	NaN	37	1	37	2	120	220	320	NaN	520	0.0250977214891464	2	1	NaN	1364548.2903766	NaN	1364549.2737277	1364549.79029258
18	18	0	0	90	36.1581920903955	36.241610738255	11	0.366690236059949	2	2	2	NaN	1	3	0.191111655185609	0	1	NaN	38	1	38	2	120	220	320	NaN	520	0.010417568963021	1	1	NaN	1364550.6239112	NaN	1364551.6072945	1364552.12384633
18	18	0	0	90	36.1581920903955	36.241610738255	25	0.833386900136247	2	4	3	NaN	1	3	0.191111655185609	0	1	NaN	39	1	39	2	120	220	320	NaN	520	0.0104263161774725	1	1	NaN	1364552.9407795	NaN	1364553.9241952	1364554.44074778
18	18	0	0	90	36.1581920903955	36.241610738255	20	0.666709520108998	2	11	2	NaN	2	3	0.191111655185609	0	1	NaN	40	1	40	2	120	220	320	NaN	520	0.18489991617389	1	0	NaN	1364555.2743495	NaN	1364556.2577557	1364556.77430288
18	18	0	0	90	36.1581920903955	36.241610738255	11	0.366690236059949	2	6	6	NaN	1	3	0.191111655185609	0	1	NaN	41	1	41	2	120	220	320	NaN	520	0.588633268838748	1	1	NaN	1364557.7745981	NaN	1364558.7579971	1364559.27455103
18	18	0	0	90	36.1581920903955	36.241610738255	17	0.566703092092648	2	12	2	NaN	2	3	0.191111655185609	0	1	NaN	42	1	42	2	120	220	320	NaN	520	0.368441868806258	2	1	NaN	1364560.6749158	NaN	1364561.6582882	1364562.17483573
18	18	0	0	90	36.1581920903955	36.241610738255	10	0.333354760054499	2	12	2	NaN	2	4	0.191111655185609	0	1	NaN	43	1	43	2	120	220	320	NaN	520	0.106168921338394	2	1	NaN	1364563.8250687	NaN	1364564.8085875	1364565.32514748
18	18	0	0	90	36.1581920903955	36.241610738255	20	0.666709520108998	2	3	4	NaN	1	5	0.191111655185609	0	1	NaN	44	1	44	2	120	220	320	NaN	520	0.729206053074449	1	1	NaN	1364566.2421036	NaN	1364567.2254885	1364567.74204855
18	18	0	0	90	36.1581920903955	36.241610738255	10	0.333354760054499	2	7	6	NaN	2	4	0.191111655185609	0	1	NaN	45	1	45	2	120	220	320	NaN	520	1.19099672138691	2	1	NaN	1364569.2924036	NaN	1364570.2757845	1364570.79235408
18	18	0	0	90	36.1581920903955	36.241610738255	10	0.333354760054499	2	1	1	NaN	1	3	0.191111655185609	0	1	NaN	46	1	46	2	120	220	320	NaN	520	0.0104107686784118	1	1	NaN	1364572.7927375	NaN	1364573.7761383	1364574.29269303
18	18	0	0	90	36.1581920903955	36.241610738255	7	0.233348332038149	2	9	4	NaN	2	3	0.191111655185609	0	1	NaN	47	1	47	2	120	220	320	NaN	520	0.437726121395826	2	1	NaN	1364575.1096817	NaN	1364576.0930257	1364576.60959228
18	18	0	0	90	36.1581920903955	36.241610738255	10	0.333354760054499	2	6	3	NaN	1	4	0.191111655185609	0	1	NaN	48	1	48	2	120	220	320	NaN	520	0.0104124688077718	1	1	NaN	1364577.8597809	NaN	1364578.8433334	1364579.35985823
18	18	0	0	90	36.1581920903955	36.241610738255	21	0.700044996114448	2	5	6	NaN	1	5	0.191111655185609	0	1	NaN	49	1	49	2	120	220	320	NaN	520	0.138829068746418	1	1	NaN	1364580.1767899	NaN	1364581.1602023	1364581.67674303
18	18	0	0	90	36.1581920903955	36.241610738255	8	0.266683808043599	2	9	6	NaN	2	5	0.191111655185609	0	1	NaN	50	1	50	2	120	220	320	NaN	520	0.01027194224298	2	1	NaN	1364582.6269826	NaN	1364583.6104425	1364584.12699926
18	18	0	0	90	36.1581920903955	36.241610738255	10	0.333354760054499	2	10	6	NaN	2	4	0.191111655185609	0	1	NaN	51	1	51	2	120	220	320	NaN	520	0.384171168785542	1	0	NaN	1364585.4272811	NaN	1364586.4107182	1364586.92726113
18	18	0	0	90	36.1581920903955	36.241610738255	6	0.200012856032699	2	6	4	NaN	1	5	0.191111655185609	0	1	NaN	52	1	52	2	120	220	320	NaN	520	0.300219568656757	1	1	NaN	1364588.1275875	NaN	1364589.1109727	1364589.62753493
18	18	0	0	90	36.1581920903955	36.241610738255	20	0.666709520108998	2	10	1	NaN	2	3	0.191111655185609	0	1	NaN	53	1	53	2	120	220	320	NaN	520	0.0908691214863211	1	0	NaN	1364590.9445336	NaN	1364591.9279226	1364592.44447448
18	18	0	0	90	36.1581920903955	36.241610738255	19	0.633374044103548	2	9	4	NaN	2	3	0.191111655185609	0	1	NaN	54	1	54	2	120	220	320	NaN	520	0.170736968750134	2	1	NaN	1364593.3447542	NaN	1364594.3281496	1364594.84471173
18	18	0	0	90	36.1581920903955	36.241610738255	9	0.300019284049049	2	6	6	NaN	1	5	0.191111655185609	0	1	NaN	55	1	55	2	120	220	320	NaN	520	0.0311129214242101	1	1	NaN	1364595.8283201	NaN	1364596.8117505	1364597.32829328
18	18	0	0	90	36.1581920903955	36.241610738255	6	0.200012856032699	2	7	1	NaN	2	3	0.191111655185609	0	1	NaN	56	1	56	2	120	220	320	NaN	520	0.546838968759403	2	1	NaN	1364598.3285561	NaN	1364599.3119807	1364599.82853003
18	18	0	0	90	36.1581920903955	36.241610738255	13	0.433361188070849	2	1	3	NaN	1	5	0.191111655185609	0	1	NaN	57	1	57	2	120	220	320	NaN	520	0.0104299162048846	2	0	NaN	1364602.512291	NaN	1364603.4957309	1364604.01227098
18	18	0	0	90	36.1581920903955	36.241610738255	15	0.500032140081748	2	4	2	NaN	1	4	0.191111655185609	0	1	NaN	58	1	58	2	120	220	320	NaN	520	0.0103951215278357	1	1	NaN	1364604.8292199	NaN	1364605.8126122	1364606.32917328
18	18	0	0	90	36.1581920903955	36.241610738255	6	0.200012856032699	2	10	1	NaN	2	5	0.191111655185609	0	1	NaN	59	1	59	2	120	220	320	NaN	520	0.0104084687773138	2	1	NaN	1364607.1461083	NaN	1364608.1295137	1364608.64605673
18	18	0	0	90	36.1581920903955	36.241610738255	12	0.400025712065399	2	8	5	NaN	2	3	0.191111655185609	0	1	NaN	60	1	60	2	120	220	320	NaN	520	1.33258286351338	1	0	NaN	1364609.4630411	NaN	1364610.4463905	1364610.96295364
18	18	0	0	90	36.1581920903955	36.241610738255	9	0.300019284049049	2	8	4	NaN	2	3	0.191111655185609	0	1	NaN	61	1	61	2	120	220	320	NaN	520	0.594430721364915	1	0	NaN	1364613.1133508	NaN	1364614.0968048	1364614.61331958
18	18	0	0	90	36.1581920903955	36.241610738255	23	0.766715948125348	2	1	5	NaN	1	5	0.191111655185609	0	1	NaN	62	1	62	2	120	220	320	NaN	520	0.278234268771484	2	0	NaN	1364616.0136773	NaN	1364616.9970774	1364617.51360343
18	18	0	0	90	36.1581920903955	36.241610738255	25	0.833386900136247	2	9	6	NaN	2	5	0.191111655185609	0	1	NaN	63	1	63	2	120	220	320	NaN	520	0.334179121535271	2	1	NaN	1364618.5972346	NaN	1364619.5806344	1364620.09719438
18	18	0	0	90	36.1581920903955	36.241610738255	11	0.366690236059949	2	4	4	NaN	1	4	0.191111655185609	0	1	NaN	64	2	1	2	120	220	320	NaN	520	0.55854456871748	2	0	NaN	1364658.3011105	NaN	1364659.2845348	1364659.80108913
18	18	0	0	90	36.1581920903955	36.241610738255	6	0.200012856032699	2	8	3	NaN	2	5	0.191111655185609	0	1	NaN	65	2	2	2	120	220	320	NaN	520	0.0104315688367933	2	1	NaN	1364661.1679845	NaN	1364662.1514782	1364662.66803153
18	18	0	0	90	36.1581920903955	36.241610738255	16	0.533367616087198	2	12	4	NaN	2	5	0.191111655185609	0	1	NaN	66	2	3	2	120	220	320	NaN	520	0.0103972214274108	2	1	NaN	1364663.484882	NaN	1364664.468382	1364664.98493488
18	18	0	0	90	36.1581920903955	36.241610738255	22	0.733380472119898	2	3	6	NaN	1	3	0.191111655185609	0	1	NaN	67	2	4	2	120	220	320	NaN	520	0.0975938686169684	1	1	NaN	1364665.8018631	NaN	1364666.7853122	1364667.30182333
18	18	0	0	90	36.1581920903955	36.241610738255	6	0.200012856032699	2	2	6	NaN	1	3	0.191111655185609	0	1	NaN	68	2	5	2	120	220	320	NaN	520	1.98540816875175	2	0	NaN	1364668.202003	NaN	1364669.1855075	1364669.70205183
18	18	0	0	90	36.1581920903955	36.241610738255	21	0.700044996114448	2	12	6	NaN	2	4	0.191111655185609	0	1	NaN	69	2	6	2	120	220	320	NaN	520	0.708919916069135	2	1	NaN	1364672.5025557	NaN	1364673.4859208	1364674.00247298
18	18	0	0	90	36.1581920903955	36.241610738255	14	0.466696664076299	2	12	4	NaN	2	4	0.191111655185609	0	1	NaN	70	2	7	2	120	220	320	NaN	520	0.0103925212752074	2	1	NaN	1364675.5195156	NaN	1364676.502901	1364677.01944508
18	18	0	0	90	36.1581920903955	36.241610738255	0	0	1	1	2	NaN	1	3	0.191111655185609	0	1	NaN	71	2	8	2	110	210	310	NaN	510	0.0232784689869732	1	1	NaN	1364677.8363885	NaN	1364678.8197876	1364679.33633963
18	18	0	0	90	36.1581920903955	36.241610738255	14	0.466696664076299	2	7	3	NaN	2	3	0.191111655185609	0	1	NaN	72	2	9	2	120	220	320	NaN	520	4.79373951628804	1	0	NaN	1364680.1699337	NaN	1364681.1533529	1364681.66990348
18	18	0	0	90	36.1581920903955	36.241610738255	24	0.800051424130797	2	1	1	NaN	1	3	0.191111655185609	0	1	NaN	73	2	10	2	120	220	320	NaN	520	0.0103311843704432	1	1	NaN	1364687.2706663	NaN	1364688.254042	1364688.77060372
18	18	0	0	90	36.1581920903955	36.241610738255	18	0.600038568098098	2	5	3	NaN	1	5	0.191111655185609	0	1	NaN	74	2	11	2	120	220	320	NaN	520	1.16784027894028	2	0	NaN	1364689.5875311	NaN	1364690.5709454	1364691.08749322
18	18	0	0	90	36.1581920903955	36.241610738255	16	0.533367616087198	2	10	3	NaN	2	5	0.191111655185609	0	1	NaN	75	2	12	2	120	220	320	NaN	520	0.010409768903628	2	1	NaN	1364693.0712299	NaN	1364694.0546155	1364694.57116683
18	18	0	0	90	36.1581920903955	36.241610738255	11	0.366690236059949	2	12	1	NaN	2	3	0.191111655185609	0	1	NaN	76	2	13	2	120	220	320	NaN	520	1.25576296891086	2	1	NaN	1364695.3881284	NaN	1364696.3715114	1364696.88805383
18	18	0	0	90	36.1581920903955	36.241610738255	12	0.400025712065399	2	1	6	NaN	1	5	0.191111655185609	0	1	NaN	77	2	14	2	120	220	320	NaN	520	0.0104099689051509	1	1	NaN	1364698.9551286	NaN	1364699.9385592	1364700.45507383
18	18	0	0	90	36.1581920903955	36.241610738255	16	0.533367616087198	2	9	3	NaN	2	5	0.191111655185609	0	1	NaN	78	2	15	2	120	220	320	NaN	520	0.747553068911657	1	0	NaN	1364701.271948	NaN	1364702.2554253	1364702.77196393
18	18	0	0	90	36.1581920903955	36.241610738255	14	0.466696664076299	2	4	1	NaN	1	4	0.191111655185609	0	1	NaN	79	2	16	2	120	220	320	NaN	520	0.19293556897901	1	1	NaN	1364704.3390041	NaN	1364705.3223808	1364705.83893623
18	18	0	0	90	36.1581920903955	36.241610738255	21	0.700044996114448	2	6	3	NaN	1	5	0.191111655185609	0	1	NaN	80	2	17	2	120	220	320	NaN	520	0.0104121686890721	1	1	NaN	1364706.8392456	NaN	1364707.8226481	1364708.33918233
18	18	0	0	90	36.1581920903955	36.241610738255	24	0.800051424130797	2	9	2	NaN	2	4	0.191111655185609	0	1	NaN	81	2	18	2	120	220	320	NaN	520	1.80510176881216	2	1	NaN	1364709.6226954	NaN	1364710.6062545	1364711.12278733
18	18	0	0	90	36.1581920903955	36.241610738255	15	0.500032140081748	2	8	4	NaN	2	5	0.191111655185609	0	1	NaN	82	2	19	2	120	220	320	NaN	520	0.183693068800494	1	0	NaN	1364713.7397873	NaN	1364714.7233571	1364715.23986313
18	18	0	0	90	36.1581920903955	36.241610738255	8	0.266683808043599	2	12	6	NaN	2	3	0.191111655185609	0	1	NaN	83	2	20	2	120	220	320	NaN	520	0.0102539947256446	2	1	NaN	1364716.2401494	NaN	1364717.2235561	1364717.74011941
18	18	0	0	90	36.1581920903955	36.241610738255	7	0.233348332038149	2	4	6	NaN	1	5	0.191111655185609	0	1	NaN	84	2	21	2	120	220	320	NaN	520	1.00939071108587	1	1	NaN	1364719.2904266	NaN	1364720.2738586	1364720.79039709
18	18	0	0	90	36.1581920903955	36.241610738255	20	0.666709520108998	2	1	2	NaN	1	3	0.191111655185609	0	1	NaN	85	2	22	2	120	220	320	NaN	520	0.116459168959409	1	1	NaN	1364722.6074534	NaN	1364723.590845	1364724.10739653
18	18	0	0	90	36.1581920903955	36.241610738255	20	0.666709520108998	2	2	6	NaN	1	4	0.191111655185609	0	1	NaN	86	2	23	2	120	220	320	NaN	520	0.0103421316016465	1	1	NaN	1364725.0410034	NaN	1364726.024411	1364726.54097317
18	18	0	0	90	36.1581920903955	36.241610738255	25	0.833386900136247	2	6	1	NaN	1	3	0.191111655185609	0	1	NaN	87	2	24	2	120	220	320	NaN	520	0.301669121487066	1	1	NaN	1364727.3579151	NaN	1364728.3413079	1364728.85786898
18	18	0	0	90	36.1581920903955	36.241610738255	13	0.433361188070849	2	12	6	NaN	2	4	0.191111655185609	0	1	NaN	88	2	25	2	120	220	320	NaN	520	0.404089868767187	2	1	NaN	1364729.9915264	NaN	1364730.9748967	1364731.49145353
18	18	0	0	90	36.1581920903955	36.241610738255	6	0.200012856032699	2	3	3	NaN	1	4	0.191111655185609	0	1	NaN	89	2	26	2	120	220	320	NaN	520	0.0104283688124269	1	1	NaN	1364732.708446	NaN	1364733.6918374	1364734.20838873
18	18	0	0	90	36.1581920903955	36.241610738255	19	0.633374044103548	2	11	1	NaN	2	5	0.191111655185609	0	1	NaN	90	2	27	2	120	220	320	NaN	520	0.0103914213832468	2	1	NaN	1364735.0253414	NaN	1364736.0087352	1364736.52529098
18	18	0	0	90	36.1581920903955	36.241610738255	9	0.300019284049049	2	10	4	NaN	2	3	0.191111655185609	0	1	NaN	91	2	28	2	120	220	320	NaN	520	0.0104088687803596	2	1	NaN	1364737.3422339	NaN	1364738.3256174	1364738.84218003
18	18	0	0	90	36.1581920903955	36.241610738255	25	0.833386900136247	2	1	2	NaN	1	3	0.191111655185609	0	1	NaN	92	2	29	2	120	220	320	NaN	520	0.408685568720102	1	1	NaN	1364739.659111	NaN	1364740.6425215	1364741.15906583
18	18	0	0	90	36.1581920903955	36.241610738255	21	0.700044996114448	2	4	3	NaN	1	4	0.191111655185609	0	1	NaN	93	2	30	2	120	220	320	NaN	520	0.0104087213985622	1	1	NaN	1364742.376059	NaN	1364743.3594468	1364743.87600378
18	18	0	0	90	36.1581920903955	36.241610738255	22	0.733380472119898	2	1	3	NaN	1	4	0.191111655185609	0	1	NaN	94	2	31	2	120	220	320	NaN	520	0.0147016688715667	1	1	NaN	1364744.6929553	NaN	1364745.6763502	1364746.19289533
18	18	0	0	90	36.1581920903955	36.241610738255	23	0.766715948125348	2	6	2	NaN	1	3	0.191111655185609	0	1	NaN	95	2	32	2	120	220	320	NaN	520	0.0104131689295173	1	1	NaN	1364747.0265164	NaN	1364748.0099024	1364748.52646723
18	18	0	0	90	36.1581920903955	36.241610738255	13	0.433361188070849	2	4	3	NaN	1	5	0.191111655185609	0	1	NaN	96	2	33	2	120	220	320	NaN	520	1.50005958951078	1	1	NaN	1364749.3434149	NaN	1364750.326802	1364750.84335881
18	18	0	0	90	36.1581920903955	36.241610738255	19	0.633374044103548	2	1	6	NaN	1	5	0.191111655185609	0	1	NaN	97	2	34	2	120	220	320	NaN	520	0.0104111686814576	2	0	NaN	1364753.1604552	NaN	1364754.143856	1364754.66040333
18	18	0	0	90	36.1581920903955	36.241610738255	13	0.433361188070849	2	9	4	NaN	2	5	0.191111655185609	0	1	NaN	98	2	35	2	120	220	320	NaN	520	0.0189350214786828	1	0	NaN	1364755.760588	NaN	1364756.7440889	1364757.26065978
18	18	0	0	90	36.1581920903955	36.241610738255	8	0.266683808043599	2	10	2	NaN	2	4	0.191111655185609	0	1	NaN	99	2	36	2	120	220	320	NaN	520	0.0103310842532665	1	0	NaN	1364758.0942847	NaN	1364759.0776603	1364759.59421852
18	18	0	0	90	36.1581920903955	36.241610738255	17	0.566703092092648	2	1	5	NaN	1	3	0.191111655185609	0	1	NaN	100	2	37	2	120	220	320	NaN	520	0.304561421507969	2	0	NaN	1364760.4111591	NaN	1364761.3945625	1364761.91111068
18	18	0	0	90	36.1581920903955	36.241610738255	14	0.466696664076299	2	11	2	NaN	2	3	0.191111655185609	0	1	NaN	101	2	38	2	120	220	320	NaN	520	0.0104752688203007	2	1	NaN	1364763.0947366	NaN	1364764.0781565	1364764.59470913
18	18	0	0	90	36.1581920903955	36.241610738255	13	0.433361188070849	2	3	3	NaN	1	5	0.191111655185609	0	1	NaN	102	2	39	2	120	220	320	NaN	520	0.0104164688382298	1	1	NaN	1364766.2116984	NaN	1364767.1951297	1364767.71168123
18	18	0	0	90	36.1581920903955	36.241610738255	23	0.766715948125348	2	2	3	NaN	1	4	0.191111655185609	0	1	NaN	103	2	40	2	120	220	320	NaN	520	0.0510613687802106	2	0	NaN	1364768.5286204	NaN	1364769.5120161	1364770.02857053
18	18	0	0	90	36.1581920903955	36.241610738255	11	0.366690236059949	2	11	5	NaN	2	4	0.191111655185609	0	1	NaN	104	2	41	2	120	220	320	NaN	520	0.308575574075803	2	1	NaN	1364770.8955313	NaN	1364771.8789214	1364772.39547653
18	18	0	0	90	36.1581920903955	36.241610738255	25	0.833386900136247	2	5	1	NaN	1	3	0.191111655185609	0	1	NaN	105	2	42	2	120	220	320	NaN	520	0.472563168732449	1	1	NaN	1364773.7792631	NaN	1364774.7625445	1364775.27909193
18	18	0	0	90	36.1581920903955	36.241610738255	6	0.200012856032699	2	9	1	NaN	2	3	0.191111655185609	0	1	NaN	106	2	43	2	120	220	320	NaN	520	1.46349812136032	2	1	NaN	1364776.7961	NaN	1364777.7795096	1364778.29605598
18	18	0	0	90	36.1581920903955	36.241610738255	7	0.233348332038149	2	8	3	NaN	2	4	0.191111655185609	0	1	NaN	107	2	44	2	120	220	320	NaN	520	0.264784568920732	2	1	NaN	1364780.5631405	NaN	1364781.5465351	1364782.06308453
18	18	0	0	90	36.1581920903955	36.241610738255	8	0.266683808043599	2	5	5	NaN	1	3	0.191111655185609	0	1	NaN	108	2	45	2	120	220	320	NaN	520	0.272845168830827	1	1	NaN	1364783.1467126	NaN	1364784.1301153	1364784.64666873
18	18	0	0	90	36.1581920903955	36.241610738255	9	0.300019284049049	2	12	4	NaN	2	3	0.191111655185609	0	1	NaN	109	2	46	2	120	220	320	NaN	520	0.385771921370178	1	0	NaN	1364785.7303065	NaN	1364786.7137356	1364787.23026128
18	18	0	0	90	36.1581920903955	36.241610738255	22	0.733380472119898	2	9	4	NaN	2	5	0.191111655185609	0	1	NaN	110	2	47	2	120	220	320	NaN	520	0.125192874111235	2	1	NaN	1364788.4304639	NaN	1364789.4139792	1364789.93053073
18	18	0	0	90	36.1581920903955	36.241610738255	19	0.633374044103548	2	2	6	NaN	1	4	0.191111655185609	0	1	NaN	111	2	48	2	120	220	320	NaN	520	0.387442121515051	2	0	NaN	1364790.8641605	NaN	1364791.8475379	1364792.36410098
18	18	0	0	90	36.1581920903955	36.241610738255	21	0.700044996114448	2	7	2	NaN	2	5	0.191111655185609	0	1	NaN	112	2	49	2	120	220	320	NaN	520	0.0104042214807123	2	1	NaN	1364793.5643171	NaN	1364794.5478051	1364795.06436748
18	18	0	0	90	36.1581920903955	36.241610738255	11	0.366690236059949	2	9	1	NaN	2	4	0.191111655185609	0	1	NaN	113	2	50	2	120	220	320	NaN	520	0.706707468722016	1	0	NaN	1364795.8813383	NaN	1364796.8646915	1364797.38125753
18	18	0	0	90	36.1581920903955	36.241610738255	16	0.533367616087198	2	5	4	NaN	1	3	0.191111655185609	0	1	NaN	114	2	51	2	120	220	320	NaN	520	1.23385826894082	1	1	NaN	1364798.8982602	NaN	1364799.8817133	1364800.39821413
18	18	0	0	90	36.1581920903955	36.241610738255	15	0.500032140081748	2	10	5	NaN	2	4	0.191111655185609	0	1	NaN	115	2	52	2	120	220	320	NaN	520	0.0104139689356089	1	0	NaN	1364802.4486324	NaN	1364803.4320131	1364803.94856953
18	18	0	0	90	36.1581920903955	36.241610738255	25	0.833386900136247	2	7	4	NaN	2	4	0.191111655185609	0	1	NaN	116	2	53	2	120	220	320	NaN	520	1.55813116882928	2	1	NaN	1364804.7655104	NaN	1364805.7489132	1364806.26546943
18	18	0	0	90	36.1581920903955	36.241610738255	8	0.266683808043599	2	6	1	NaN	1	4	0.191111655185609	0	1	NaN	117	2	54	2	120	220	320	NaN	520	0.0104082687757909	1	1	NaN	1364808.6325612	NaN	1364809.6159404	1364810.13250773
18	18	0	0	90	36.1581920903955	36.241610738255	21	0.700044996114448	2	12	3	NaN	2	4	0.191111655185609	0	1	NaN	118	2	55	2	120	220	320	NaN	520	0.110189568949863	2	1	NaN	1364810.9494411	NaN	1364811.9327508	1364812.44940213
18	18	0	0	90	36.1581920903955	36.241610738255	24	0.800051424130797	2	2	5	NaN	1	5	0.191111655185609	0	1	NaN	119	2	56	2	120	220	320	NaN	520	0.253754621371627	2	0	NaN	1364813.3663729	NaN	1364814.3497466	1364814.86631218
18	18	0	0	90	36.1581920903955	36.241610738255	12	0.400025712065399	2	10	4	NaN	2	5	0.191111655185609	0	1	NaN	120	2	57	2	120	220	320	NaN	520	0.078528368845582	2	1	NaN	1364815.9332735	NaN	1364816.916684	1364817.43321833
18	18	0	0	90	36.1581920903955	36.241610738255	23	0.766715948125348	2	4	4	NaN	1	4	0.191111655185609	0	1	NaN	121	2	58	2	120	220	320	NaN	520	0.0103990214411169	1	1	NaN	1364818.3168407	NaN	1364819.3002314	1364819.81679408
18	18	0	0	90	36.1581920903955	36.241610738255	0	0	1	12	5	NaN	2	4	0.191111655185609	0	1	NaN	122	2	59	2	110	210	310	NaN	510	0.0258952686563134	1	0	NaN	1364820.6336318	NaN	1364821.6171438	1364822.13367933
18	18	0	0	90	36.1581920903955	36.241610738255	11	0.366690236059949	2	8	2	NaN	2	4	0.191111655185609	0	1	NaN	123	2	60	2	120	220	320	NaN	520	0.88465062645264	2	1	NaN	1364822.9672941	NaN	1364823.9506935	1364824.46724657
18	18	0	0	90	36.1581920903955	36.241610738255	9	0.300019284049049	2	1	3	NaN	1	4	0.191111655185609	0	1	NaN	124	2	61	2	120	220	320	NaN	520	0.380254116142169	1	1	NaN	1364826.1676405	NaN	1364827.1510162	1364827.66755898
18	18	0	0	90	36.1581920903955	36.241610738255	16	0.533367616087198	2	4	6	NaN	1	3	0.191111655185609	0	1	NaN	125	2	62	2	120	220	320	NaN	520	0.047244168817997	1	1	NaN	1364828.8844252	NaN	1364829.8679362	1364830.38449363
18	18	0	0	90	36.1581920903955	36.241610738255	13	0.433361188070849	2	7	5	NaN	2	5	0.191111655185609	0	1	NaN	126	2	63	2	120	220	320	NaN	520	0.0103917215019464	2	1	NaN	1364831.2514542	NaN	1364832.2348388	1364832.75139328
18	18	0	0	90	36.1581920903955	36.241610738255	21	0.700044996114448	2	1	5	NaN	1	5	0.191111655185609	0	1	NaN	127	3	1	2	120	220	320	NaN	520	0.327752421377227	2	0	NaN	1364847.2363269	NaN	1364848.2197487	1364848.73629678
18	18	0	0	90	36.1581920903955	36.241610738255	20	0.666709520108998	2	1	2	NaN	1	5	0.191111655185609	0	1	NaN	128	3	2	2	120	220	320	NaN	520	0.632908968720585	1	1	NaN	1365214.3558616	NaN	1365215.3391691	1365215.85570363
18	18	0	0	90	36.1581920903955	36.241610738255	17	0.566703092092648	2	2	2	NaN	1	4	0.191111655185609	0	1	NaN	129	3	3	2	120	220	320	NaN	520	0.0103796843905002	1	1	NaN	1365217.3060619	NaN	1365218.2894347	1365218.80600152
18	18	0	0	90	36.1581920903955	36.241610738255	25	0.833386900136247	2	12	1	NaN	2	3	0.191111655185609	0	1	NaN	130	3	4	2	120	220	320	NaN	520	0.0104121686890721	2	1	NaN	1365219.6229649	NaN	1365220.6063389	1365221.12288553
18	18	0	0	90	36.1581920903955	36.241610738255	21	0.700044996114448	2	3	4	NaN	1	5	0.191111655185609	0	1	NaN	131	3	5	2	120	220	320	NaN	520	1.13636042131111	2	0	NaN	1365221.9398422	NaN	1365222.9232922	1365223.43979048
18	18	0	0	90	36.1581920903955	36.241610738255	6	0.200012856032699	2	12	5	NaN	2	5	0.191111655185609	0	1	NaN	132	3	6	2	120	220	320	NaN	520	1.11735026864335	1	0	NaN	1365225.4067924	NaN	1365226.3902705	1365226.90679133
18	18	0	0	90	36.1581920903955	36.241610738255	18	0.600038568098098	2	1	1	NaN	1	3	0.191111655185609	0	1	NaN	133	3	7	2	120	220	320	NaN	520	0.315670358482748	1	1	NaN	1365228.8405317	NaN	1365229.8239315	1365230.34047204
18	18	0	0	90	36.1581920903955	36.241610738255	19	0.633374044103548	2	12	6	NaN	2	3	0.191111655185609	0	1	NaN	134	3	8	2	120	220	320	NaN	520	0.282499368768185	2	1	NaN	1365231.4739776	NaN	1365232.4574973	1365232.97405413
18	18	0	0	90	36.1581920903955	36.241610738255	8	0.266683808043599	2	3	5	NaN	1	4	0.191111655185609	0	1	NaN	135	3	9	2	120	220	320	NaN	520	0.0104105689097196	1	1	NaN	1365234.0743849	NaN	1365235.0578174	1365235.57430493
18	18	0	0	90	36.1581920903955	36.241610738255	9	0.300019284049049	2	2	5	NaN	1	3	0.191111655185609	0	1	NaN	136	3	10	2	120	220	320	NaN	520	0.421425768872723	1	1	NaN	1365236.3911256	NaN	1365237.374671	1365237.89120833
18	18	0	0	90	36.1581920903955	36.241610738255	19	0.633374044103548	2	12	2	NaN	2	3	0.191111655185609	0	1	NaN	137	3	11	2	120	220	320	NaN	520	0.383125968743116	2	1	NaN	1365239.1415217	NaN	1365240.124938	1365240.64147543
18	18	0	0	90	36.1581920903955	36.241610738255	8	0.266683808043599	2	4	3	NaN	1	4	0.191111655185609	0	1	NaN	138	3	12	2	120	220	320	NaN	520	2.9468787740916	2	0	NaN	1365241.8418149	NaN	1365242.8251793	1365243.34173733
18	18	0	0	90	36.1581920903955	36.241610738255	10	0.333354760054499	2	5	1	NaN	1	3	0.191111655185609	0	1	NaN	139	3	13	2	120	220	320	NaN	520	0.815368842100725	2	0	NaN	1365247.1089947	NaN	1365248.0924038	1365248.60893286
18	18	0	0	90	36.1581920903955	36.241610738255	15	0.500032140081748	2	11	6	NaN	2	4	0.191111655185609	0	1	NaN	140	3	14	2	120	220	320	NaN	520	0.0577794162090868	2	1	NaN	1365250.2424909	NaN	1365251.2260188	1365251.74256648
18	18	0	0	90	36.1581920903955	36.241610738255	19	0.633374044103548	2	7	2	NaN	2	3	0.191111655185609	0	1	NaN	141	3	15	2	120	220	320	NaN	520	0.0103985739406198	0	0	NaN	1365252.6094021	NaN	1365253.5929164	1365254.10946283
18	18	0	0	90	36.1581920903955	36.241610738255	6	0.200012856032699	2	3	4	NaN	1	3	0.191111655185609	0	1	NaN	142	3	16	2	120	220	320	NaN	520	0.10932170576416	1	1	NaN	1365254.9430503	NaN	1365255.9264698	1365256.44302659
18	18	0	0	90	36.1581920903955	36.241610738255	12	0.400025712065399	2	3	6	NaN	1	4	0.191111655185609	0	1	NaN	143	3	17	2	120	220	320	NaN	520	0.723607373889536	1	1	NaN	1365257.3766619	NaN	1365258.3601822	1365258.87659733
18	18	0	0	90	36.1581920903955	36.241610738255	15	0.500032140081748	2	7	1	NaN	2	5	0.191111655185609	0	1	NaN	144	3	18	2	120	220	320	NaN	520	1.61741026886739	2	1	NaN	1365260.4269822	NaN	1365261.4103565	1365261.92690053
18	18	0	0	90	36.1581920903955	36.241610738255	15	0.500032140081748	2	2	5	NaN	1	4	0.191111655185609	0	1	NaN	145	3	19	2	120	220	320	NaN	520	0.0570178162306547	1	1	NaN	1365264.4273093	NaN	1365265.4107579	1365265.92729738
18	18	0	0	90	36.1581920903955	36.241610738255	0	0	1	11	6	NaN	2	5	0.191111655185609	0	1	NaN	146	3	20	2	110	210	310	NaN	510	0.010424668667838	2	1	NaN	1365266.7942603	NaN	1365267.7776429	1365268.29418743
18	18	0	0	90	36.1581920903955	36.241610738255	14	0.466696664076299	2	2	2	NaN	1	3	0.191111655185609	0	1	NaN	147	3	21	2	120	220	320	NaN	520	7.35663901618682	1	1	NaN	1365269.1277964	NaN	1365270.1112703	1365270.62775648
18	18	0	0	90	36.1581920903955	36.241610738255	22	0.733380472119898	2	5	5	NaN	1	4	0.191111655185609	0	1	NaN	148	3	22	2	120	220	320	NaN	520	0.960687868995592	1	1	NaN	1365278.8121018	NaN	1365279.7954972	1365280.31204393
18	18	0	0	90	36.1581920903955	36.241610738255	16	0.533367616087198	2	2	5	NaN	1	3	0.191111655185609	0	1	NaN	149	3	23	2	120	220	320	NaN	520	0.010379774030298	1	1	NaN	1365282.0957453	NaN	1365283.0791583	1365283.59570153
18	18	0	0	90	36.1581920903955	36.241610738255	17	0.566703092092648	2	4	5	NaN	1	5	0.191111655185609	0	1	NaN	150	3	24	2	120	220	320	NaN	520	0.735068221576512	1	1	NaN	1365284.429328	NaN	1365285.4126703	1365285.92926178
18	18	0	0	90	36.1581920903955	36.241610738255	12	0.400025712065399	2	4	1	NaN	1	5	0.191111655185609	0	1	NaN	151	3	25	2	120	220	320	NaN	520	0.15706266881898	1	1	NaN	1365287.4796393	NaN	1365288.4630244	1365288.97955853
18	18	0	0	90	36.1581920903955	36.241610738255	8	0.266683808043599	2	2	2	NaN	1	4	0.191111655185609	0	1	NaN	152	3	26	2	120	220	320	NaN	520	0.194204121362418	1	1	NaN	1365289.9465548	NaN	1365290.9299354	1365291.44646968
18	18	0	0	90	36.1581920903955	36.241610738255	16	0.533367616087198	2	11	5	NaN	2	5	0.191111655185609	0	1	NaN	153	3	27	2	120	220	320	NaN	520	0.0104101686738431	2	1	NaN	1365292.4634617	NaN	1365293.4468357	1365293.96337423
18	18	0	0	90	36.1581920903955	36.241610738255	9	0.300019284049049	2	10	1	NaN	2	3	0.191111655185609	0	1	NaN	154	3	28	2	120	220	320	NaN	520	0.191516121383756	2	1	NaN	1365294.7970365	NaN	1365295.7803848	1365296.29694398
18	18	0	0	90	36.1581920903955	36.241610738255	6	0.200012856032699	2	1	6	NaN	1	4	0.191111655185609	0	1	NaN	155	3	29	2	120	220	320	NaN	520	0.858359121484682	2	0	NaN	1365297.3139168	NaN	1365298.2973309	1365298.81385098
18	18	0	0	90	36.1581920903955	36.241610738255	13	0.433361188070849	2	5	4	NaN	1	4	0.191111655185609	0	1	NaN	156	3	30	2	120	220	320	NaN	520	0.15477312146686	1	1	NaN	1365300.497594	NaN	1365301.48094	1365301.99750938
18	18	0	0	90	36.1581920903955	36.241610738255	0	0	1	3	5	NaN	1	4	0.191111655185609	0	1	NaN	157	3	31	2	110	210	310	NaN	510	0.0104782688431442	1	1	NaN	1365302.9811292	NaN	1365303.964533	1365304.48110203
18	18	0	0	90	36.1581920903955	36.241610738255	19	0.633374044103548	2	6	2	NaN	1	3	0.191111655185609	0	1	NaN	158	3	32	2	120	220	320	NaN	520	0.257891674060374	1	1	NaN	1365305.3147084	NaN	1365306.2980909	1365306.81464993
18	18	0	0	90	36.1581920903955	36.241610738255	20	0.666709520108998	2	10	6	NaN	2	3	0.191111655185609	0	1	NaN	159	3	33	2	120	220	320	NaN	520	0.426016868790612	2	1	NaN	1365307.8982991	NaN	1365308.8817368	1365309.39822673
18	18	0	0	90	36.1581920903955	36.241610738255	16	0.533367616087198	2	9	4	NaN	2	3	0.191111655185609	0	1	NaN	160	3	34	2	120	220	320	NaN	520	0.0439038367476314	2	1	NaN	1365310.6485644	NaN	1365311.6319729	1365312.14850976
18	18	0	0	90	36.1581920903955	36.241610738255	13	0.433361188070849	2	5	5	NaN	1	4	0.191111655185609	0	1	NaN	161	3	35	2	120	220	320	NaN	520	0.0104114688001573	2	0	NaN	1365312.9987941	NaN	1365313.9821876	1365314.49872873
18	18	0	0	90	36.1581920903955	36.241610738255	23	0.766715948125348	2	1	4	NaN	1	5	0.191111655185609	0	1	NaN	162	3	36	2	120	220	320	NaN	520	0.232666426571086	1	1	NaN	1365315.3156908	NaN	1365316.2990967	1365316.81564977
18	18	0	0	90	36.1581920903955	36.241610738255	14	0.466696664076299	2	9	5	NaN	2	3	0.191111655185609	0	1	NaN	163	3	37	2	120	220	320	NaN	520	0.194645668845624	2	1	NaN	1365317.8658022	NaN	1365318.8493443	1365319.36587353
18	18	0	0	90	36.1581920903955	36.241610738255	9	0.300019284049049	2	9	1	NaN	2	5	0.191111655185609	0	1	NaN	164	3	38	2	120	220	320	NaN	520	0.277723526349291	2	1	NaN	1365320.382843	NaN	1365321.3662914	1365321.88279237
18	18	0	0	90	36.1581920903955	36.241610738255	7	0.233348332038149	2	12	5	NaN	2	4	0.191111655185609	0	1	NaN	165	3	39	2	120	220	320	NaN	520	0.621338368859142	2	1	NaN	1365322.9831191	NaN	1365323.9665188	1365324.48305023
18	18	0	0	90	36.1581920903955	36.241610738255	10	0.333354760054499	2	10	5	NaN	2	5	0.191111655185609	0	1	NaN	166	3	40	2	120	220	320	NaN	520	0.335067768814042	1	0	NaN	1365325.9332846	NaN	1365326.9167951	1365327.43333233
18	18	0	0	90	36.1581920903955	36.241610738255	7	0.233348332038149	2	2	2	NaN	1	5	0.191111655185609	0	1	NaN	167	3	41	2	120	220	320	NaN	520	0.388714568922296	1	1	NaN	1365328.5837313	NaN	1365329.5670486	1365330.08360113
18	18	0	0	90	36.1581920903955	36.241610738255	20	0.666709520108998	2	5	5	NaN	1	4	0.191111655185609	0	1	NaN	168	3	42	2	120	220	320	NaN	520	0.379700721474364	2	0	NaN	1365331.6172956	NaN	1365332.6007144	1365333.11722598
18	18	0	0	90	36.1581920903955	36.241610738255	9	0.300019284049049	2	11	4	NaN	2	4	0.191111655185609	0	1	NaN	169	3	43	2	120	220	320	NaN	520	0.390967168845236	2	1	NaN	1365334.3175458	NaN	1365335.3009326	1365335.81748433
18	18	0	0	90	36.1581920903955	36.241610738255	19	0.633374044103548	2	1	3	NaN	1	3	0.191111655185609	0	1	NaN	170	3	44	2	120	220	320	NaN	520	0.145911116153002	2	0	NaN	1365337.0345214	NaN	1365338.0179122	1365338.53442248
18	18	0	0	90	36.1581920903955	36.241610738255	8	0.266683808043599	2	5	1	NaN	1	5	0.191111655185609	0	1	NaN	171	3	45	2	120	220	320	NaN	520	0.495258668903261	1	1	NaN	1365339.5013915	NaN	1365340.4848032	1365341.00133003
18	18	0	0	90	36.1581920903955	36.241610738255	6	0.200012856032699	2	5	6	NaN	1	3	0.191111655185609	0	1	NaN	172	3	46	2	120	220	320	NaN	520	0.0104082687757909	2	0	NaN	1365342.3183087	NaN	1365343.3017618	1365343.81827373
18	18	0	0	90	36.1581920903955	36.241610738255	23	0.766715948125348	2	3	4	NaN	1	5	0.191111655185609	0	1	NaN	173	3	47	2	120	220	320	NaN	520	0.985631768824533	2	0	NaN	1365344.6351275	NaN	1365345.6186258	1365346.13517613
18	18	0	0	90	36.1581920903955	36.241610738255	0	0	1	5	2	NaN	1	3	0.191111655185609	0	1	NaN	174	3	48	2	110	210	310	NaN	510	0.132298079086468	2	0	NaN	1365347.9522192	NaN	1365348.935602	1365349.45216162
18	18	0	0	90	36.1581920903955	36.241610738255	0	0	1	2	6	NaN	1	3	0.191111655185609	0	1	NaN	175	3	49	2	110	210	310	NaN	510	0.424464668845758	2	0	NaN	1365350.4524769	NaN	1365351.4358812	1365351.95241763
18	18	0	0	90	36.1581920903955	36.241610738255	17	0.566703092092648	2	8	6	NaN	2	3	0.191111655185609	0	1	NaN	176	3	50	2	120	220	320	NaN	520	0.0104999160394073	1	0	NaN	1365353.2027442	NaN	1365354.1861482	1365354.70268858
18	18	0	0	90	36.1581920903955	36.241610738255	21	0.700044996114448	2	1	2	NaN	1	5	0.191111655185609	0	1	NaN	177	3	51	2	120	220	320	NaN	520	0.010478968732059	1	1	NaN	1365355.5361745	NaN	1365356.5197461	1365357.03624423
18	18	0	0	90	36.1581920903955	36.241610738255	0	0	1	7	2	NaN	2	3	0.191111655185609	0	1	NaN	178	3	52	2	110	210	310	NaN	510	1.28652596892789	1	0	NaN	1365357.8698666	NaN	1365358.8532545	1365359.36980253
18	18	0	0	90	36.1581920903955	36.241610738255	14	0.466696664076299	2	12	1	NaN	2	3	0.191111655185609	0	1	NaN	179	3	53	2	120	220	320	NaN	520	0.380793121410534	2	1	NaN	1365361.703438	NaN	1365362.6870054	1365363.20353418
18	18	0	0	90	36.1581920903955	36.241610738255	8	0.266683808043599	2	12	4	NaN	2	4	0.191111655185609	0	1	NaN	180	3	54	2	120	220	320	NaN	520	0.920998468762264	1	0	NaN	1365364.4038517	NaN	1365365.3872529	1365365.90377833
18	18	0	0	90	36.1581920903955	36.241610738255	9	0.300019284049049	2	6	5	NaN	1	5	0.191111655185609	0	1	NaN	181	3	55	2	120	220	320	NaN	520	0.0104926161002368	1	1	NaN	1365367.7040464	NaN	1365368.6875738	1365369.20410098
18	18	0	0	90	36.1581920903955	36.241610738255	17	0.566703092092648	2	5	6	NaN	1	4	0.191111655185609	0	1	NaN	182	3	56	2	120	220	320	NaN	520	0.571421578992158	1	1	NaN	1365370.1210614	NaN	1365371.1044782	1365371.62100552
18	18	0	0	90	36.1581920903955	36.241610738255	13	0.433361188070849	2	8	5	NaN	2	4	0.191111655185609	0	1	NaN	183	3	57	2	120	220	320	NaN	520	0.503195668803528	2	1	NaN	1365373.0213485	NaN	1365374.0047518	1365374.52129183
18	18	0	0	90	36.1581920903955	36.241610738255	16	0.533367616087198	2	10	4	NaN	2	5	0.191111655185609	0	1	NaN	184	3	58	2	120	220	320	NaN	520	0.0408847688231617	2	1	NaN	1365376.3716761	NaN	1365377.3550874	1365377.87161763
18	18	0	0	90	36.1581920903955	36.241610738255	17	0.566703092092648	2	9	4	NaN	2	3	0.191111655185609	0	1	NaN	185	3	59	2	120	220	320	NaN	520	0.509625921491534	2	1	NaN	1365380.2386872	NaN	1365381.2221317	1365381.73867448
18	18	0	0	90	36.1581920903955	36.241610738255	16	0.533367616087198	2	12	3	NaN	2	4	0.191111655185609	0	1	NaN	186	3	60	2	120	220	320	NaN	520	0.539391074096784	2	1	NaN	1365384.0889786	NaN	1365385.072503	1365385.58904583
18	18	0	0	90	36.1581920903955	36.241610738255	11	0.366690236059949	2	5	3	NaN	1	4	0.191111655185609	0	1	NaN	187	3	61	2	120	220	320	NaN	520	0.0103924213908613	2	0	NaN	1365386.9393985	NaN	1365387.9227915	1365388.43933298
18	18	0	0	90	36.1581920903955	36.241610738255	7	0.233348332038149	2	9	6	NaN	2	4	0.191111655185609	0	1	NaN	188	3	62	2	120	220	320	NaN	520	0.0105388478841633	2	1	NaN	1365389.2561843	NaN	1365390.2396938	1365390.75621145
18	18	0	0	90	36.1581920903955	36.241610738255	20	0.666709520108998	2	11	2	NaN	2	4	0.191111655185609	0	1	NaN	189	3	63	2	120	220	320	NaN	520	0.0102698421105742	2	1	NaN	1365391.5898439	NaN	1365392.5732327	1365393.08979286
18	18	0	0	90	36.1581920903955	36.241610738255	7	0.233348332038149	2	3	2	NaN	1	3	0.191111655185609	0	1	NaN	190	4	1	2	120	220	320	NaN	520	0.339293821481988	1	1	NaN	1365396.073622	NaN	1365397.0570143	1365397.57355468
18	18	0	0	90	36.1581920903955	36.241610738255	20	0.666709520108998	2	9	4	NaN	2	5	0.191111655185609	0	1	NaN	191	4	2	2	120	220	320	NaN	520	0.0104678214993328	1	0	NaN	1365399.9072928	NaN	1365400.8907347	1365401.40727498
18	18	0	0	90	36.1581920903955	36.241610738255	23	0.766715948125348	2	5	2	NaN	1	4	0.191111655185609	0	1	NaN	192	4	3	2	120	220	320	NaN	520	0.0104303739499301	1	1	NaN	1365402.7242192	NaN	1365403.7076317	1365404.22421423
18	18	0	0	90	36.1581920903955	36.241610738255	16	0.533367616087198	2	4	2	NaN	1	3	0.191111655185609	0	1	NaN	193	4	4	2	120	220	320	NaN	520	0.195001716027036	1	1	NaN	1365405.0578311	NaN	1365406.0412167	1365406.55777168
18	18	0	0	90	36.1581920903955	36.241610738255	22	0.733380472119898	2	10	4	NaN	2	3	0.191111655185609	0	1	NaN	194	4	5	2	120	220	320	NaN	520	0.0105296690016985	2	1	NaN	1365407.6080541	NaN	1365408.5915286	1365409.10803093
18	18	0	0	90	36.1581920903955	36.241610738255	14	0.466696664076299	2	6	5	NaN	1	4	0.191111655185609	0	1	NaN	195	4	6	2	120	220	320	NaN	520	0.0103643264155835	1	1	NaN	1365409.9416487	NaN	1365410.9251261	1365411.44158567
18	18	0	0	90	36.1581920903955	36.241610738255	11	0.366690236059949	2	5	4	NaN	1	5	0.191111655185609	0	1	NaN	196	4	7	2	120	220	320	NaN	520	0.0104662687517703	2	0	NaN	1365412.9085901	NaN	1365413.8919944	1365414.40853893
18	18	0	0	90	36.1581920903955	36.241610738255	22	0.733380472119898	2	11	4	NaN	2	3	0.191111655185609	0	1	NaN	197	4	8	2	120	220	320	NaN	520	0.889467674074695	2	1	NaN	1365415.6755219	NaN	1365416.6589862	1365417.17549063
18	18	0	0	90	36.1581920903955	36.241610738255	19	0.633374044103548	2	11	6	NaN	2	5	0.191111655185609	0	1	NaN	198	4	9	2	120	220	320	NaN	520	0.0104514742270112	2	1	NaN	1365419.5424716	NaN	1365420.52598	1365421.04253723
18	18	0	0	90	36.1581920903955	36.241610738255	20	0.666709520108998	2	5	2	NaN	1	4	0.191111655185609	0	1	NaN	199	4	10	2	120	220	320	NaN	520	4.02743232133798	2	0	NaN	1365422.409563	NaN	1365423.3929387	1365423.90948048
18	18	0	0	90	36.1581920903955	36.241610738255	12	0.400025712065399	2	10	3	NaN	2	4	0.191111655185609	0	1	NaN	200	4	11	2	120	220	320	NaN	520	0.0105126635171473	2	1	NaN	1365428.7933555	NaN	1365429.7769318	1365430.29343014
18	18	0	0	90	36.1581920903955	36.241610738255	10	0.333354760054499	2	4	6	NaN	1	3	0.191111655185609	0	1	NaN	201	4	12	2	120	220	320	NaN	520	0.0536791635677218	1	1	NaN	1365431.1269398	NaN	1365432.1104651	1365432.62699414
18	18	0	0	90	36.1581920903955	36.241610738255	15	0.500032140081748	2	12	3	NaN	2	4	0.191111655185609	0	1	NaN	202	4	13	2	120	220	320	NaN	520	0.959085574140772	2	1	NaN	1365433.4939557	NaN	1365434.4773633	1365434.99390413
18	18	0	0	90	36.1581920903955	36.241610738255	15	0.500032140081748	2	9	6	NaN	2	5	0.191111655185609	0	1	NaN	203	4	14	2	120	220	320	NaN	520	0.233649068744853	2	1	NaN	1365437.0110352	NaN	1365437.9943819	1365438.51090633
18	18	0	0	90	36.1581920903955	36.241610738255	18	0.600038568098098	2	2	4	NaN	1	3	0.191111655185609	0	1	NaN	204	4	15	2	120	220	320	NaN	520	0.0103822790551931	1	1	NaN	1365439.6611101	NaN	1365440.6446509	1365441.16118012
18	18	0	0	90	36.1581920903955	36.241610738255	11	0.366690236059949	2	1	4	NaN	1	3	0.191111655185609	0	1	NaN	205	4	16	2	120	220	320	NaN	520	0.0420173688326031	1	1	NaN	1365441.9946602	NaN	1365442.9781799	1365443.49473423
18	18	0	0	90	36.1581920903955	36.241610738255	6	0.200012856032699	2	2	3	NaN	1	3	0.191111655185609	0	1	NaN	206	4	17	2	120	220	320	NaN	520	0.37159222131595	1	1	NaN	1365444.345019	NaN	1365445.3284357	1365445.84498478
18	18	0	0	90	36.1581920903955	36.241610738255	6	0.200012856032699	2	7	3	NaN	2	4	0.191111655185609	0	1	NaN	207	4	18	2	120	220	320	NaN	520	0.231501668691635	2	1	NaN	1365447.0452997	NaN	1365448.0286858	1365448.54523383
18	18	0	0	90	36.1581920903955	36.241610738255	12	0.400025712065399	2	9	3	NaN	2	4	0.191111655185609	0	1	NaN	208	4	19	2	120	220	320	NaN	520	0.688927221577615	2	1	NaN	1365449.5955575	NaN	1365450.5789514	1365451.09548538
18	18	0	0	90	36.1581920903955	36.241610738255	0	0	1	9	3	NaN	2	4	0.191111655185609	0	1	NaN	209	4	20	2	110	210	310	NaN	510	0.682114768773317	1	0	NaN	1365453.1625232	NaN	1365454.1459548	1365454.66249323
18	18	0	0	90	36.1581920903955	36.241610738255	9	0.300019284049049	2	4	5	NaN	1	3	0.191111655185609	0	1	NaN	210	4	21	2	120	220	320	NaN	520	0.014532721368596	1	1	NaN	1365456.2461711	NaN	1365457.2295847	1365457.74613788
18	18	0	0	90	36.1581920903955	36.241610738255	18	0.600038568098098	2	7	2	NaN	2	4	0.191111655185609	0	1	NaN	211	4	22	2	120	220	320	NaN	520	0.185724794864655	2	1	NaN	1365458.5630898	NaN	1365459.5464945	1365460.06303971
18	18	0	0	90	36.1581920903955	36.241610738255	23	0.766715948125348	2	6	3	NaN	1	3	0.191111655185609	0	1	NaN	212	4	23	2	120	220	320	NaN	520	0.133637168910354	1	1	NaN	1365461.063349	NaN	1365462.0467347	1365462.56327073
18	18	0	0	90	36.1581920903955	36.241610738255	18	0.600038568098098	2	10	5	NaN	2	5	0.191111655185609	0	1	NaN	213	4	24	2	120	220	320	NaN	520	0.0104705742560327	1	0	NaN	1365463.5136044	NaN	1365464.4969317	1365465.01351523
18	18	0	0	90	36.1581920903955	36.241610738255	10	0.333354760054499	2	2	6	NaN	1	3	0.191111655185609	0	1	NaN	214	4	25	2	120	220	320	NaN	520	1.41062816884369	2	0	NaN	1365466.7138661	NaN	1365467.6972994	1365468.21382283
18	18	0	0	90	36.1581920903955	36.241610738255	7	0.233348332038149	2	4	5	NaN	1	5	0.191111655185609	0	1	NaN	215	4	26	2	120	220	320	NaN	520	0.126000074204057	1	1	NaN	1365471.6309109	NaN	1365472.6144211	1365473.13098133
18	18	0	0	90	36.1581920903955	36.241610738255	14	0.466696664076299	2	3	5	NaN	1	5	0.191111655185609	0	1	NaN	216	4	27	2	120	220	320	NaN	520	0.0104208688717335	1	1	NaN	1365474.0811497	NaN	1365475.0646929	1365475.58120823
18	18	0	0	90	36.1581920903955	36.241610738255	11	0.366690236059949	2	1	4	NaN	1	4	0.191111655185609	0	1	NaN	217	4	28	2	120	220	320	NaN	520	2.99204581603408	1	1	NaN	1365476.7648713	NaN	1365477.7482715	1365478.26480968
18	18	0	0	90	36.1581920903955	36.241610738255	16	0.533367616087198	2	6	2	NaN	1	5	0.191111655185609	0	1	NaN	218	4	29	2	120	220	320	NaN	520	0.0103519894182682	1	1	NaN	1365483.2154531	NaN	1365484.1989128	1365484.71545061
18	18	0	0	90	36.1581920903955	36.241610738255	16	0.533367616087198	2	8	6	NaN	2	5	0.191111655185609	0	1	NaN	219	4	30	2	120	220	320	NaN	520	0.0105687689501792	1	0	NaN	1365485.5490751	NaN	1365486.5325129	1365487.04900843
18	18	0	0	90	36.1581920903955	36.241610738255	17	0.566703092092648	2	3	6	NaN	1	5	0.191111655185609	0	1	NaN	220	4	31	2	120	220	320	NaN	520	1.01051367400214	2	0	NaN	1365487.8826423	NaN	1365488.8660139	1365489.38256563
18	18	0	0	90	36.1581920903955	36.241610738255	22	0.733380472119898	2	4	1	NaN	1	5	0.191111655185609	0	1	NaN	221	4	32	2	120	220	320	NaN	520	0.0104225690010935	1	1	NaN	1365491.2163044	NaN	1365492.1996954	1365492.71622583
18	18	0	0	90	36.1581920903955	36.241610738255	9	0.300019284049049	2	12	1	NaN	2	3	0.191111655185609	0	1	NaN	222	4	33	2	120	220	320	NaN	520	0.0104951686225832	1	0	NaN	1365494.8832837	NaN	1365495.8667066	1365496.38325153
18	18	0	0	90	36.1581920903955	36.241610738255	22	0.733380472119898	2	2	4	NaN	1	4	0.191111655185609	0	1	NaN	223	4	34	2	120	220	320	NaN	520	0.857071574078873	2	0	NaN	1365497.4835772	NaN	1365498.4669814	1365498.98351143
18	18	0	0	90	36.1581920903955	36.241610738255	7	0.233348332038149	2	10	1	NaN	2	4	0.191111655185609	0	1	NaN	224	4	35	2	120	220	320	NaN	520	0.0104572689160705	2	1	NaN	1365500.6672304	NaN	1365501.6505737	1365502.16716493
18	18	0	0	90	36.1581920903955	36.241610738255	20	0.666709520108998	2	6	1	NaN	1	3	0.191111655185609	0	1	NaN	225	4	36	2	120	220	320	NaN	520	0.0103854741901159	1	1	NaN	1365503.4508296	NaN	1365504.434229	1365504.95077003
18	18	0	0	90	36.1581920903955	36.241610738255	22	0.733380472119898	2	11	1	NaN	2	5	0.191111655185609	0	1	NaN	226	4	37	2	120	220	320	NaN	520	0.786397321615368	2	1	NaN	1365505.8344706	NaN	1365506.8177835	1365507.33433488
18	18	0	0	90	36.1581920903955	36.241610738255	18	0.600038568098098	2	1	3	NaN	1	3	0.191111655185609	0	1	NaN	227	4	38	2	120	220	320	NaN	520	0.010422668652609	2	0	NaN	1365512.4016823	NaN	1365513.3851038	1365513.90163763
18	18	0	0	90	36.1581920903955	36.241610738255	18	0.600038568098098	2	3	2	NaN	1	3	0.191111655185609	0	1	NaN	228	4	39	2	120	220	320	NaN	520	0.0104469214566052	2	0	NaN	1365514.7186092	NaN	1365515.7020071	1365516.21854378
18	18	0	0	90	36.1581920903955	36.241610738255	13	0.433361188070849	2	2	1	NaN	1	5	0.191111655185609	0	1	NaN	229	4	40	2	120	220	320	NaN	520	0.848955821245909	2	0	NaN	1365517.0521664	NaN	1365518.0355465	1365518.55210008
18	18	0	0	90	36.1581920903955	36.241610738255	17	0.566703092092648	2	12	2	NaN	2	5	0.191111655185609	0	1	NaN	230	4	41	2	120	220	320	NaN	520	0.897605168865994	2	1	NaN	1365520.2191198	NaN	1365521.20252	1365521.71907723
18	18	0	0	90	36.1581920903955	36.241610738255	16	0.533367616087198	2	1	6	NaN	1	4	0.191111655185609	0	1	NaN	231	4	42	2	120	220	320	NaN	520	0.0104145687073469	2	0	NaN	1365523.4361292	NaN	1365524.4195234	1365524.93605373
18	18	0	0	90	36.1581920903955	36.241610738255	16	0.533367616087198	2	1	4	NaN	1	4	0.191111655185609	0	1	NaN	232	4	43	2	120	220	320	NaN	520	0.0104658214841038	1	1	NaN	1365526.2029235	NaN	1365527.186449	1365527.70299618
18	18	0	0	90	36.1581920903955	36.241610738255	12	0.400025712065399	2	2	3	NaN	1	5	0.191111655185609	0	1	NaN	233	4	44	2	120	220	320	NaN	520	0.0104381262790412	2	0	NaN	1365528.5366903	NaN	1365529.5200094	1365530.03656637
18	18	0	0	90	36.1581920903955	36.241610738255	14	0.466696664076299	2	10	5	NaN	2	5	0.191111655185609	0	1	NaN	234	4	45	2	120	220	320	NaN	520	0.0104154688306153	1	0	NaN	1365530.870192	NaN	1365531.8536015	1365532.37012753
18	18	0	0	90	36.1581920903955	36.241610738255	15	0.500032140081748	2	1	1	NaN	1	3	0.191111655185609	0	1	NaN	235	4	46	2	120	220	320	NaN	520	0.600909953238443	1	1	NaN	1365533.2037581	NaN	1365534.1871483	1365534.70368405
18	18	0	0	90	36.1581920903955	36.241610738255	20	0.666709520108998	2	2	6	NaN	1	3	0.191111655185609	0	1	NaN	236	4	47	2	120	220	320	NaN	520	0.0353754686657339	2	0	NaN	1365536.1373525	NaN	1365537.1207849	1365537.63731133
18	18	0	0	90	36.1581920903955	36.241610738255	17	0.566703092092648	2	1	6	NaN	1	3	0.191111655185609	0	1	NaN	237	4	48	2	120	220	320	NaN	520	0.589555073995143	2	0	NaN	1365538.4876207	NaN	1365539.4709965	1365539.98754993
18	18	0	0	90	36.1581920903955	36.241610738255	19	0.633374044103548	2	6	4	NaN	1	3	0.191111655185609	0	1	NaN	238	4	49	2	120	220	320	NaN	520	0.34530336339958	1	1	NaN	1365541.38789	NaN	1365542.3711791	1365542.88782394
18	18	0	0	90	36.1581920903955	36.241610738255	8	0.266683808043599	2	1	3	NaN	1	5	0.191111655185609	0	1	NaN	239	4	50	2	120	220	320	NaN	520	0.010379774030298	1	1	NaN	1365545.0382281	NaN	1365546.021628	1365546.53818573
18	18	0	0	90	36.1581920903955	36.241610738255	23	0.766715948125348	2	11	6	NaN	2	3	0.191111655185609	0	1	NaN	240	4	51	2	120	220	320	NaN	520	0.0890842687804252	2	1	NaN	1365547.371815	NaN	1365548.3552131	1365548.87173523
18	18	0	0	90	36.1581920903955	36.241610738255	15	0.500032140081748	2	7	5	NaN	2	3	0.191111655185609	0	1	NaN	241	4	52	2	120	220	320	NaN	520	0.504685616353527	2	1	NaN	1365549.7720281	NaN	1365550.7554564	1365551.27197248
18	18	0	0	90	36.1581920903955	36.241610738255	21	0.700044996114448	2	11	2	NaN	2	5	0.191111655185609	0	1	NaN	242	4	53	2	120	220	320	NaN	520	0.0104205689858645	2	1	NaN	1365553.0223198	NaN	1365554.0057744	1365554.52228993
18	18	0	0	90	36.1581920903955	36.241610738255	18	0.600038568098098	2	4	6	NaN	1	4	0.191111655185609	0	1	NaN	243	4	54	2	120	220	320	NaN	520	0.0735699688084424	2	0	NaN	1365555.3392274	NaN	1365556.3226539	1365556.83918953
18	18	0	0	90	36.1581920903955	36.241610738255	15	0.500032140081748	2	6	1	NaN	1	5	0.191111655185609	0	1	NaN	244	4	55	2	120	220	320	NaN	520	0.0125600688625127	1	1	NaN	1365558.2560944	NaN	1365559.2396123	1365559.75614363
18	18	0	0	90	36.1581920903955	36.241610738255	12	0.400025712065399	2	3	5	NaN	1	3	0.191111655185609	0	1	NaN	245	4	56	2	120	220	320	NaN	520	0.809306568698958	1	1	NaN	1365560.7397471	NaN	1365561.723222	1365562.23972523
18	18	0	0	90	36.1581920903955	36.241610738255	14	0.466696664076299	2	5	2	NaN	1	4	0.191111655185609	0	1	NaN	246	4	57	2	120	220	320	NaN	520	0.0104156688321382	1	1	NaN	1365563.8734634	NaN	1365564.8568612	1365565.37335813
18	18	0	0	90	36.1581920903955	36.241610738255	19	0.633374044103548	2	10	5	NaN	2	3	0.191111655185609	0	1	NaN	247	4	58	2	120	220	320	NaN	520	1.02478406880982	1	0	NaN	1365566.5403606	NaN	1365567.5237724	1365568.04029413
18	18	0	0	90	36.1581920903955	36.241610738255	13	0.433361188070849	2	8	4	NaN	2	4	0.191111655185609	0	1	NaN	248	4	59	2	120	220	320	NaN	520	0.0429921688046306	1	0	NaN	1365569.8738826	NaN	1365570.8574298	1365571.37394353
18	18	0	0	90	36.1581920903955	36.241610738255	19	0.633374044103548	2	7	2	NaN	2	5	0.191111655185609	0	1	NaN	249	4	60	2	120	220	320	NaN	520	1.08273882139474	2	1	NaN	1365574.0744265	NaN	1365575.0578344	1365575.57437188
18	18	0	0	90	36.1581920903955	36.241610738255	18	0.600038568098098	2	9	5	NaN	2	3	0.191111655185609	0	1	NaN	250	4	61	2	120	220	320	NaN	520	1.89805912133306	2	1	NaN	1365577.4747559	NaN	1365578.4581228	1365578.97470328
18	18	0	0	90	36.1581920903955	36.241610738255	24	0.800051424130797	2	8	5	NaN	2	5	0.191111655185609	0	1	NaN	251	4	62	2	120	220	320	NaN	520	0.545165668707341	2	1	NaN	1365581.6918361	NaN	1365582.6753062	1365583.19177753
18	18	0	0	90	36.1581920903955	36.241610738255	6	0.200012856032699	2	4	2	NaN	1	4	0.191111655185609	0	1	NaN	252	4	63	2	120	220	320	NaN	520	0.0859885162208229	1	1	NaN	1365584.5587639	NaN	1365585.5422017	1365586.05871688
18	18	0	0	90	36.1581920903955	36.241610738255	18	0.600038568098098	2	6	6	NaN	1	3	0.191111655185609	0	1	NaN	253	5	1	2	120	220	320	NaN	520	0.434256516164169	1	1	NaN	1365590.2426651	NaN	1365591.2261016	1365591.74261188
18	18	0	0	90	36.1581920903955	36.241610738255	8	0.266683808043599	2	4	2	NaN	1	3	0.191111655185609	0	1	NaN	254	5	2	2	120	220	320	NaN	520	0.0104913162067533	1	1	NaN	1365593.4596452	NaN	1365594.4430654	1365594.95959618
18	18	0	0	90	36.1581920903955	36.241610738255	10	0.333354760054499	2	2	5	NaN	1	5	0.191111655185609	0	1	NaN	255	5	3	2	120	220	320	NaN	520	0.0104177687317133	1	1	NaN	1365595.7930989	NaN	1365596.7766075	1365597.29315303
18	18	0	0	90	36.1581920903955	36.241610738255	21	0.700044996114448	2	4	4	NaN	1	3	0.191111655185609	0	1	NaN	256	5	4	2	120	220	320	NaN	520	0.0103926213923842	1	1	NaN	1365598.6767309	NaN	1365599.6602472	1365600.17678088
18	18	0	0	90	36.1581920903955	36.241610738255	23	0.766715948125348	2	12	2	NaN	2	5	0.191111655185609	0	1	NaN	257	5	5	2	120	220	320	NaN	520	0.377938363468274	2	1	NaN	1365601.6270995	NaN	1365602.6105153	1365603.12705794
18	18	0	0	90	36.1581920903955	36.241610738255	25	0.833386900136247	2	10	1	NaN	2	5	0.191111655185609	0	1	NaN	258	5	6	2	120	220	320	NaN	520	0.0760981214698404	2	1	NaN	1365604.3607121	NaN	1365605.3441966	1365605.86067108
18	18	0	0	90	36.1581920903955	36.241610738255	8	0.266683808043599	2	7	2	NaN	2	3	0.191111655185609	0	1	NaN	259	5	7	2	120	220	320	NaN	520	0.0286571162287146	2	1	NaN	1365606.7443088	NaN	1365607.7276928	1365608.24423318
18	18	0	0	90	36.1581920903955	36.241610738255	14	0.466696664076299	2	9	5	NaN	2	4	0.191111655185609	0	1	NaN	260	5	8	2	120	220	320	NaN	520	0.542069868883118	2	1	NaN	1365609.0945457	NaN	1365610.0779414	1365610.59446863
18	18	0	0	90	36.1581920903955	36.241610738255	25	0.833386900136247	2	10	3	NaN	2	3	0.191111655185609	0	1	NaN	261	5	9	2	120	220	320	NaN	520	0.419761321507394	2	1	NaN	1365611.9614762	NaN	1365612.9448791	1365613.46142068
18	18	0	0	90	36.1581920903955	36.241610738255	22	0.733380472119898	2	4	5	NaN	1	5	0.191111655185609	0	1	NaN	262	5	10	2	120	220	320	NaN	520	0.0104003215674311	1	1	NaN	1365616.6619198	NaN	1365617.6453624	1365618.16187828
18	18	0	0	90	36.1581920903955	36.241610738255	11	0.366690236059949	2	6	3	NaN	1	5	0.191111655185609	0	1	NaN	263	5	11	2	120	220	320	NaN	520	0.0103789740242064	1	1	NaN	1365619.3288502	NaN	1365620.3123049	1365620.82880823
18	18	0	0	90	36.1581920903955	36.241610738255	18	0.600038568098098	2	4	5	NaN	1	3	0.191111655185609	0	1	NaN	264	5	12	2	120	220	320	NaN	520	0.744291121372953	1	1	NaN	1365622.8125588	NaN	1365623.7959378	1365624.31248068
18	18	0	0	90	36.1581920903955	36.241610738255	17	0.566703092092648	2	8	1	NaN	2	3	0.191111655185609	0	1	NaN	265	5	13	2	120	220	320	NaN	520	0.0103663264308125	1	0	NaN	1365625.8795195	NaN	1365626.8629129	1365627.37944137
18	18	0	0	90	36.1581920903955	36.241610738255	19	0.633374044103548	2	3	1	NaN	1	3	0.191111655185609	0	1	NaN	266	5	14	2	120	220	320	NaN	520	0.0104340263642371	1	1	NaN	1365628.2130753	NaN	1365629.1964668	1365629.71301077
18	18	0	0	90	36.1581920903955	36.241610738255	18	0.600038568098098	2	12	5	NaN	2	5	0.191111655185609	0	1	NaN	267	5	15	2	120	220	320	NaN	520	1.11676483158953	1	0	NaN	1365630.8800057	NaN	1365631.863388	1365632.37993697
18	18	0	0	90	36.1581920903955	36.241610738255	0	0	1	8	2	NaN	2	5	0.191111655185609	0	1	NaN	268	5	16	2	110	210	310	NaN	510	2.09163016895764	2	1	NaN	1365634.3135497	NaN	1365635.2970602	1365635.81360473
18	18	0	0	90	36.1581920903955	36.241610738255	11	0.366690236059949	2	3	3	NaN	1	4	0.191111655185609	0	1	NaN	269	5	17	2	120	220	320	NaN	520	0.994035569019616	1	1	NaN	1365638.730789	NaN	1365639.714161	1365640.23073513
18	18	0	0	90	36.1581920903955	36.241610738255	21	0.700044996114448	2	7	5	NaN	2	5	0.191111655185609	0	1	NaN	270	5	18	2	120	220	320	NaN	520	0.557212689425796	2	1	NaN	1365642.0477462	NaN	1365643.031181	1365643.54770681
18	18	0	0	90	36.1581920903955	36.241610738255	13	0.433361188070849	2	12	6	NaN	2	5	0.191111655185609	0	1	NaN	271	5	19	2	120	220	320	NaN	520	0.0342628213111311	2	1	NaN	1365644.9147013	NaN	1365645.898134	1365646.41465468
18	18	0	0	90	36.1581920903955	36.241610738255	17	0.566703092092648	2	2	6	NaN	1	4	0.191111655185609	0	1	NaN	272	5	20	2	120	220	320	NaN	520	0.403926621424034	2	0	NaN	1365647.2649576	NaN	1365648.2483769	1365648.76488178
18	18	0	0	90	36.1581920903955	36.241610738255	24	0.800051424130797	2	7	5	NaN	2	5	0.191111655185609	0	1	NaN	273	5	21	2	120	220	320	NaN	520	0.43937507388182	2	1	NaN	1365650.18186	NaN	1365651.1653126	1365651.68183503
18	18	0	0	90	36.1581920903955	36.241610738255	24	0.800051424130797	2	3	2	NaN	1	5	0.191111655185609	0	1	NaN	274	5	22	2	120	220	320	NaN	520	0.0103976214304566	1	1	NaN	1365652.9322452	NaN	1365653.9155531	1365654.43209798
18	18	0	0	90	36.1581920903955	36.241610738255	23	0.766715948125348	2	7	4	NaN	2	5	0.191111655185609	0	1	NaN	275	5	23	2	120	220	320	NaN	520	0.0104620212223381	2	1	NaN	1365655.2490437	NaN	1365656.2324564	1365656.74900238
18	18	0	0	90	36.1581920903955	36.241610738255	6	0.200012856032699	2	12	1	NaN	2	3	0.191111655185609	0	1	NaN	276	5	24	2	120	220	320	NaN	520	0.0104121689219028	2	1	NaN	1365657.6159362	NaN	1365658.5993524	1365659.11589873
18	18	0	0	90	36.1581920903955	36.241610738255	22	0.733380472119898	2	12	6	NaN	2	5	0.191111655185609	0	1	NaN	277	5	25	2	120	220	320	NaN	520	0.799354368820786	2	1	NaN	1365659.949511	NaN	1365660.9330125	1365661.44945113
18	18	0	0	90	36.1581920903955	36.241610738255	22	0.733380472119898	2	10	6	NaN	2	3	0.191111655185609	0	1	NaN	278	5	26	2	120	220	320	NaN	520	0.0104475687257946	2	1	NaN	1365663.2665244	NaN	1365664.2498911	1365664.76644533
18	18	0	0	90	36.1581920903955	36.241610738255	12	0.400025712065399	2	1	1	NaN	1	5	0.191111655185609	0	1	NaN	279	5	27	2	120	220	320	NaN	520	0.604886568849906	2	0	NaN	1365665.5999414	NaN	1365666.5834813	1365667.10000453
18	18	0	0	90	36.1581920903955	36.241610738255	18	0.600038568098098	2	2	1	NaN	1	4	0.191111655185609	0	1	NaN	280	5	28	2	120	220	320	NaN	520	0.0104923162143677	2	0	NaN	1365668.617014	NaN	1365669.6004209	1365670.11696778
18	18	0	0	90	36.1581920903955	36.241610738255	7	0.233348332038149	2	11	5	NaN	2	4	0.191111655185609	0	1	NaN	281	5	29	2	120	220	320	NaN	520	0.010403431719169	2	1	NaN	1365670.9339169	NaN	1365671.9173321	1365672.43386677
18	18	0	0	90	36.1581920903955	36.241610738255	6	0.200012856032699	2	10	6	NaN	2	4	0.191111655185609	0	1	NaN	282	5	30	2	120	220	320	NaN	520	0.0104433263186365	2	1	NaN	1365673.2674982	NaN	1365674.2508799	1365674.76743087
18	18	0	0	90	36.1581920903955	36.241610738255	25	0.833386900136247	2	2	3	NaN	1	3	0.191111655185609	0	1	NaN	283	5	31	2	120	220	320	NaN	520	0.0104121689219028	1	1	NaN	1365675.5843843	NaN	1365676.5677953	1365677.08431763
18	18	0	0	90	36.1581920903955	36.241610738255	20	0.666709520108998	2	8	1	NaN	2	3	0.191111655185609	0	1	NaN	284	5	32	2	120	220	320	NaN	520	0.0104007215704769	1	0	NaN	1365677.9179591	NaN	1365678.9013374	1365679.41789078
18	18	0	0	90	36.1581920903955	36.241610738255	9	0.300019284049049	2	3	5	NaN	1	5	0.191111655185609	0	1	NaN	285	5	33	2	120	220	320	NaN	520	0.874183368869126	1	1	NaN	1365680.2348066	NaN	1365681.2182201	1365681.73477463
18	18	0	0	90	36.1581920903955	36.241610738255	19	0.633374044103548	2	10	6	NaN	2	4	0.191111655185609	0	1	NaN	286	5	34	2	120	220	320	NaN	520	0.0419277688488364	2	1	NaN	1365683.4351433	NaN	1365684.4185515	1365684.93510193
18	18	0	0	90	36.1581920903955	36.241610738255	24	0.800051424130797	2	5	1	NaN	1	3	0.191111655185609	0	1	NaN	287	5	35	2	120	220	320	NaN	520	1.27647691615857	2	0	NaN	1365687.3688732	NaN	1365688.3523339	1365688.86881978
18	18	0	0	90	36.1581920903955	36.241610738255	0	0	1	10	4	NaN	2	3	0.191111655185609	0	1	NaN	288	5	36	2	110	210	310	NaN	510	0.0104099686723202	2	1	NaN	1365691.5693014	NaN	1365692.5525821	1365693.06922473
18	18	0	0	90	36.1581920903955	36.241610738255	0	0	1	3	2	NaN	1	3	0.191111655185609	0	1	NaN	289	5	37	2	110	210	310	NaN	510	0.0103932213969529	1	1	NaN	1365694.7029002	NaN	1365695.6863294	1365696.20287318
18	18	0	0	90	36.1581920903955	36.241610738255	10	0.333354760054499	2	8	1	NaN	2	3	0.191111655185609	0	1	NaN	290	5	38	2	120	220	320	NaN	520	0.252118173986673	1	0	NaN	1365697.5531737	NaN	1365698.5366143	1365699.05315193
18	18	0	0	90	36.1581920903955	36.241610738255	24	0.800051424130797	2	10	1	NaN	2	3	0.191111655185609	0	1	NaN	291	5	39	2	120	220	320	NaN	520	0.13285733689554	2	1	NaN	1365700.1200991	NaN	1365701.1035363	1365701.62007406
18	18	0	0	90	36.1581920903955	36.241610738255	25	0.833386900136247	2	2	4	NaN	1	4	0.191111655185609	0	1	NaN	292	5	40	2	120	220	320	NaN	520	0.179121168795973	1	1	NaN	1365702.5703618	NaN	1365703.5537684	1365704.07030713
18	18	0	0	90	36.1581920903955	36.241610738255	22	0.733380472119898	2	5	4	NaN	1	3	0.191111655185609	0	1	NaN	293	5	41	2	120	220	320	NaN	520	0.0104128688108176	1	1	NaN	1365705.0706161	NaN	1365706.0540249	1365706.57054513
18	18	0	0	90	36.1581920903955	36.241610738255	16	0.533367616087198	2	6	5	NaN	1	3	0.191111655185609	0	1	NaN	294	5	42	2	120	220	320	NaN	520	0.0104781687259674	1	1	NaN	1365707.6708645	NaN	1365708.6542699	1365709.17080743
18	18	0	0	90	36.1581920903955	36.241610738255	24	0.800051424130797	2	9	5	NaN	2	5	0.191111655185609	0	1	NaN	295	5	43	2	120	220	320	NaN	520	1.97650382132269	2	1	NaN	1365710.0044267	NaN	1365710.9878167	1365711.50436408
18	18	0	0	90	36.1581920903955	36.241610738255	20	0.666709520108998	2	4	3	NaN	1	3	0.191111655185609	0	1	NaN	296	5	44	2	120	220	320	NaN	520	0.0122377264779061	2	0	NaN	1365714.3048448	NaN	1365715.2882318	1365715.80479847
18	18	0	0	90	36.1581920903955	36.241610738255	11	0.366690236059949	2	10	2	NaN	2	5	0.191111655185609	0	1	NaN	297	5	45	2	120	220	320	NaN	520	0.0118752212729305	2	1	NaN	1365717.1050806	NaN	1365718.0885175	1365718.60506858
18	18	0	0	90	36.1581920903955	36.241610738255	7	0.233348332038149	2	1	3	NaN	1	3	0.191111655185609	0	1	NaN	298	5	46	2	120	220	320	NaN	520	0.52624097908847	2	0	NaN	1365719.4386767	NaN	1365720.422097	1365720.93863152
18	18	0	0	90	36.1581920903955	36.241610738255	14	0.466696664076299	2	4	4	NaN	1	3	0.191111655185609	0	1	NaN	299	5	47	2	120	220	320	NaN	520	0.489017121260986	2	0	NaN	1365723.7724183	NaN	1365724.755797	1365725.27239138
18	18	0	0	90	36.1581920903955	36.241610738255	12	0.400025712065399	2	5	5	NaN	1	4	0.191111655185609	0	1	NaN	300	5	48	2	120	220	320	NaN	520	0.124402668792754	1	1	NaN	1365730.6564382	NaN	1365731.6398457	1365732.15639193
18	18	0	0	90	36.1581920903955	36.241610738255	22	0.733380472119898	2	7	6	NaN	2	5	0.191111655185609	0	1	NaN	301	5	49	2	120	220	320	NaN	520	0.0104616214521229	1	0	NaN	1365733.1067311	NaN	1365734.0901448	1365734.60663868
18	18	0	0	90	36.1581920903955	36.241610738255	6	0.200012856032699	2	4	5	NaN	1	5	0.191111655185609	0	1	NaN	302	5	50	2	120	220	320	NaN	520	0.361077215988189	1	1	NaN	1365735.7402713	NaN	1365736.7236912	1365737.24022848
18	18	0	0	90	36.1581920903955	36.241610738255	10	0.333354760054499	2	5	6	NaN	1	4	0.191111655185609	0	1	NaN	303	5	51	2	120	220	320	NaN	520	0.159700647462159	1	1	NaN	1365738.5572141	NaN	1365739.5406456	1365740.05719595
18	18	0	0	90	36.1581920903955	36.241610738255	14	0.466696664076299	2	6	4	NaN	1	3	0.191111655185609	0	1	NaN	304	5	52	2	120	220	320	NaN	520	0.140821721637622	1	1	NaN	1365742.824251	NaN	1365743.8077189	1365744.32425558
18	18	0	0	90	36.1581920903955	36.241610738255	8	0.266683808043599	2	6	2	NaN	1	3	0.191111655185609	0	1	NaN	305	5	53	2	120	220	320	NaN	520	0.0738632478751242	1	1	NaN	1365745.2912249	NaN	1365746.2746364	1365746.79116395
18	18	0	0	90	36.1581920903955	36.241610738255	10	0.333354760054499	2	3	5	NaN	1	4	0.191111655185609	0	1	NaN	306	5	54	2	120	220	320	NaN	520	0.0104653213638812	2	0	NaN	1365748.6914485	NaN	1365749.6749476	1365750.19149988
18	18	0	0	90	36.1581920903955	36.241610738255	14	0.466696664076299	2	10	2	NaN	2	3	0.191111655185609	0	1	NaN	307	5	55	2	120	220	320	NaN	520	0.111248068744317	1	0	NaN	1365751.5418554	NaN	1365752.5252711	1365753.04178233
18	18	0	0	90	36.1581920903955	36.241610738255	24	0.800051424130797	2	6	4	NaN	1	3	0.191111655185609	0	1	NaN	308	5	56	2	120	220	320	NaN	520	1.15813416871242	2	0	NaN	1365754.1753708	NaN	1365755.1588589	1365755.67536563
18	18	0	0	90	36.1581920903955	36.241610738255	21	0.700044996114448	2	11	3	NaN	2	5	0.191111655185609	0	1	NaN	309	5	57	2	120	220	320	NaN	520	0.112651679199189	2	1	NaN	1365758.4924766	NaN	1365759.4759304	1365759.99246742
18	18	0	0	90	36.1581920903955	36.241610738255	15	0.500032140081748	2	4	4	NaN	1	3	0.191111655185609	0	1	NaN	310	5	58	2	120	220	320	NaN	520	0.0104095689021051	1	1	NaN	1365760.9260048	NaN	1365761.9094962	1365762.42603043
18	18	0	0	90	36.1581920903955	36.241610738255	21	0.700044996114448	2	9	3	NaN	2	5	0.191111655185609	0	1	NaN	311	5	59	2	120	220	320	NaN	520	0.0103564895689487	1	0	NaN	1365763.2428913	NaN	1365764.2263841	1365764.74293711
18	18	0	0	90	36.1581920903955	36.241610738255	13	0.433361188070849	2	6	6	NaN	1	3	0.191111655185609	0	1	NaN	312	5	60	2	120	220	320	NaN	520	0.644422168843448	1	1	NaN	1365765.5765559	NaN	1365766.5599424	1365767.07649583
18	18	0	0	90	36.1581920903955	36.241610738255	25	0.833386900136247	2	5	5	NaN	1	4	0.191111655185609	0	1	NaN	313	5	61	2	120	220	320	NaN	520	0.0936750790569931	1	1	NaN	1365768.5435016	NaN	1365769.5269174	1365770.04345422
18	18	0	0	90	36.1581920903955	36.241610738255	7	0.233348332038149	2	3	6	NaN	1	4	0.191111655185609	0	1	NaN	314	5	62	2	120	220	320	NaN	520	0.25305796880275	1	1	NaN	1365770.9604297	NaN	1365771.9438034	1365772.46035433
18	18	0	0	90	36.1581920903955	36.241610738255	19	0.633374044103548	2	2	4	NaN	1	4	0.191111655185609	0	1	NaN	315	5	63	2	120	220	320	NaN	520	0.010464368853718	1	1	NaN	1365773.5273272	NaN	1365774.5107361	1365775.02727423
18	18	0	0	90	36.1581920903955	36.241610738255	15	0.500032140081748	2	3	2	NaN	1	4	0.191111655185609	0	1	NaN	316	6	1	2	120	220	320	NaN	520	0.430342821404338	2	0	NaN	1365809.4308946	NaN	1365810.4142665	1365810.93079598
18	18	0	0	90	36.1581920903955	36.241610738255	21	0.700044996114448	2	8	1	NaN	2	3	0.191111655185609	0	1	NaN	317	6	2	2	120	220	320	NaN	520	0.0104617213364691	2	1	NaN	1365814.5813457	NaN	1365815.564748	1365816.08130558
18	18	0	0	90	36.1581920903955	36.241610738255	0	0	1	7	5	NaN	2	4	0.191111655185609	0	1	NaN	318	6	3	2	110	210	310	NaN	510	0.0102722423616797	2	1	NaN	1365816.9149284	NaN	1365817.8983506	1365818.41485756
18	18	0	0	90	36.1581920903955	36.241610738255	23	0.766715948125348	2	8	3	NaN	2	5	0.191111655185609	0	1	NaN	319	6	4	2	120	220	320	NaN	520	0.0103839740622789	2	1	NaN	1365821.6486077	NaN	1365822.6321192	1365823.14866513
18	18	0	0	90	36.1581920903955	36.241610738255	13	0.433361188070849	2	6	3	NaN	1	4	0.191111655185609	0	1	NaN	320	6	5	2	120	220	320	NaN	520	0.0102765422780067	1	1	NaN	1365823.9655885	NaN	1365824.9490113	1365825.46556036
18	18	0	0	90	36.1581920903955	36.241610738255	0	0	1	1	5	NaN	1	3	0.191111655185609	0	1	NaN	321	6	6	2	110	210	310	NaN	510	0.162011779146269	1	1	NaN	1365826.2991724	NaN	1365827.2825674	1365827.79911732
18	18	0	0	90	36.1581920903955	36.241610738255	0	0	1	2	1	NaN	1	4	0.191111655185609	0	1	NaN	322	6	7	2	110	210	310	NaN	510	0.0104910689406097	1	1	NaN	1365828.7827598	NaN	1365829.7661582	1365830.28269073
18	18	0	0	90	36.1581920903955	36.241610738255	23	0.766715948125348	2	11	4	NaN	2	5	0.191111655185609	0	1	NaN	323	6	8	2	120	220	320	NaN	520	0.49687822163105	2	1	NaN	1365831.116352	NaN	1365832.0997212	1365832.61625548
18	18	0	0	90	36.1581920903955	36.241610738255	7	0.233348332038149	2	5	3	NaN	1	5	0.191111655185609	0	1	NaN	324	6	9	2	120	220	320	NaN	520	0.479880868690088	2	0	NaN	1365833.9333608	NaN	1365834.91667	1365835.43319283
18	18	0	0	90	36.1581920903955	36.241610738255	12	0.400025712065399	2	12	6	NaN	2	5	0.191111655185609	0	1	NaN	325	6	10	2	120	220	320	NaN	520	0.278335894690827	2	1	NaN	1365836.766837	NaN	1365837.7502676	1365838.26681691
18	18	0	0	90	36.1581920903955	36.241610738255	13	0.433361188070849	2	3	3	NaN	1	4	0.191111655185609	0	1	NaN	326	6	11	2	120	220	320	NaN	520	0.330088742310181	1	1	NaN	1365839.6671126	NaN	1365840.6505533	1365841.16709536
18	18	0	0	90	36.1581920903955	36.241610738255	18	0.600038568098098	2	7	5	NaN	2	4	0.191111655185609	0	1	NaN	327	6	12	2	120	220	320	NaN	520	0.115704968804494	1	0	NaN	1365842.8174532	NaN	1365843.8008576	1365844.31739803
18	18	0	0	90	36.1581920903955	36.241610738255	15	0.500032140081748	2	1	5	NaN	1	5	0.191111655185609	0	1	NaN	328	6	13	2	120	220	320	NaN	520	1.35109837423079	2	0	NaN	1365845.3343563	NaN	1365846.3178021	1365846.83432093
18	18	0	0	90	36.1581920903955	36.241610738255	24	0.800051424130797	2	10	4	NaN	2	4	0.191111655185609	0	1	NaN	329	6	14	2	120	220	320	NaN	520	0.0358641687780619	2	1	NaN	1365849.0014126	NaN	1365849.9848024	1365850.50133723
18	18	0	0	90	36.1581920903955	36.241610738255	7	0.233348332038149	2	10	2	NaN	2	3	0.191111655185609	0	1	NaN	330	6	15	2	120	220	320	NaN	520	0.205551021499559	2	1	NaN	1365851.3516464	NaN	1365852.3350166	1365852.85157598
18	18	0	0	90	36.1581920903955	36.241610738255	19	0.633374044103548	2	9	5	NaN	2	3	0.191111655185609	0	1	NaN	331	6	16	2	120	220	320	NaN	520	0.184690694790334	2	1	NaN	1365853.8684214	NaN	1365854.851929	1365855.36849511
18	18	0	0	90	36.1581920903955	36.241610738255	17	0.566703092092648	2	10	2	NaN	2	5	0.191111655185609	0	1	NaN	332	6	17	2	120	220	320	NaN	520	0.0104176688473672	1	0	NaN	1365857.3187491	NaN	1365858.3023125	1365858.81881913
18	18	0	0	90	36.1581920903955	36.241610738255	13	0.433361188070849	2	1	1	NaN	1	5	0.191111655185609	0	1	NaN	333	6	18	2	120	220	320	NaN	520	0.897398868808523	1	1	NaN	1365860.23597	NaN	1365861.2192533	1365861.73577293
18	18	0	0	90	36.1581920903955	36.241610738255	11	0.366690236059949	2	3	5	NaN	1	5	0.191111655185609	0	1	NaN	334	6	19	2	120	220	320	NaN	520	0.0166305636521429	1	1	NaN	1365863.4528119	NaN	1365864.4362534	1365864.95275234
18	18	0	0	90	36.1581920903955	36.241610738255	23	0.766715948125348	2	12	2	NaN	2	4	0.191111655185609	0	1	NaN	335	6	20	2	120	220	320	NaN	520	0.0588971739634871	2	1	NaN	1365865.7862563	NaN	1365866.7697832	1365867.28631783
18	18	0	0	90	36.1581920903955	36.241610738255	14	0.466696664076299	2	11	5	NaN	2	5	0.191111655185609	0	1	NaN	336	6	21	2	120	220	320	NaN	520	0.0992939688730985	2	1	NaN	1365868.16995	NaN	1365869.1533572	1365869.66988343
18	18	0	0	90	36.1581920903955	36.241610738255	8	0.266683808043599	2	2	1	NaN	1	4	0.191111655185609	0	1	NaN	337	6	22	2	120	220	320	NaN	520	0.0103215896524489	1	1	NaN	1365870.5867636	NaN	1365871.5702581	1365872.08679741
18	18	0	0	90	36.1581920903955	36.241610738255	20	0.666709520108998	2	7	3	NaN	2	3	0.191111655185609	0	1	NaN	338	6	23	2	120	220	320	NaN	520	0.0574595895595849	2	1	NaN	1365873.2038005	NaN	1365874.1872307	1365874.70372131
18	18	0	0	90	36.1581920903955	36.241610738255	7	0.233348332038149	2	6	5	NaN	1	5	0.191111655185609	0	1	NaN	339	6	24	2	120	220	320	NaN	520	0.0819499369245023	1	1	NaN	1365875.5873666	NaN	1365876.5707579	1365877.08729506
18	18	0	0	90	36.1581920903955	36.241610738255	15	0.500032140081748	2	11	1	NaN	2	3	0.191111655185609	0	1	NaN	340	6	25	2	120	220	320	NaN	520	0.0301775687839836	2	1	NaN	1365879.8710592	NaN	1365880.8544844	1365881.37103293
18	18	0	0	90	36.1581920903955	36.241610738255	12	0.400025712065399	2	5	4	NaN	1	4	0.191111655185609	0	1	NaN	341	6	26	2	120	220	320	NaN	520	0.0102880895137787	1	1	NaN	1365882.2213285	NaN	1365883.2047329	1365883.72127921
18	18	0	0	90	36.1581920903955	36.241610738255	25	0.833386900136247	2	7	6	NaN	2	3	0.191111655185609	0	1	NaN	342	6	27	2	120	220	320	NaN	520	0.0444593420252204	2	1	NaN	1365884.7047986	NaN	1365885.6883127	1365886.20484396
18	18	0	0	90	36.1581920903955	36.241610738255	24	0.800051424130797	2	12	2	NaN	2	5	0.191111655185609	0	1	NaN	343	6	28	2	120	220	320	NaN	520	0.446006168844178	2	1	NaN	1365887.0551572	NaN	1365888.0385315	1365888.55507723
18	18	0	0	90	36.1581920903955	36.241610738255	25	0.833386900136247	2	11	3	NaN	2	5	0.191111655185609	0	1	NaN	344	6	29	2	120	220	320	NaN	520	0.143106810748577	2	1	NaN	1365889.8220797	NaN	1365890.8054609	1365891.32202019
18	18	0	0	90	36.1581920903955	36.241610738255	15	0.500032140081748	2	9	5	NaN	2	4	0.191111655185609	0	1	NaN	345	6	30	2	120	220	320	NaN	520	0.659324574051425	2	1	NaN	1365892.522332	NaN	1365893.5057162	1365894.02228553
18	18	0	0	90	36.1581920903955	36.241610738255	16	0.533367616087198	2	7	6	NaN	2	5	0.191111655185609	0	1	NaN	346	6	31	2	120	220	320	NaN	520	0.0252305688336492	2	1	NaN	1365895.9560571	NaN	1365896.9394133	1365897.45595503
18	18	0	0	90	36.1581920903955	36.241610738255	13	0.433361188070849	2	11	4	NaN	2	5	0.191111655185609	0	1	NaN	347	6	32	2	120	220	320	NaN	520	0.835636668838561	2	1	NaN	1365898.2895923	NaN	1365899.2729807	1365899.78951513
18	18	0	0	90	36.1581920903955	36.241610738255	23	0.766715948125348	2	10	3	NaN	2	3	0.191111655185609	0	1	NaN	348	6	33	2	120	220	320	NaN	520	0.0104137687012553	1	0	NaN	1365901.689862	NaN	1365902.6732986	1365903.18983873
18	18	0	0	90	36.1581920903955	36.241610738255	24	0.800051424130797	2	4	1	NaN	1	3	0.191111655185609	0	1	NaN	349	6	34	2	120	220	320	NaN	520	0.570950816152617	2	0	NaN	1365904.3066994	NaN	1365905.2902081	1365905.80676758
18	18	0	0	90	36.1581920903955	36.241610738255	16	0.533367616087198	2	2	3	NaN	1	4	0.191111655185609	0	1	NaN	350	6	35	2	120	220	320	NaN	520	0.0104451740626246	1	1	NaN	1365907.1904423	NaN	1365908.1738447	1365908.69039653
18	18	0	0	90	36.1581920903955	36.241610738255	19	0.633374044103548	2	4	6	NaN	1	4	0.191111655185609	0	1	NaN	351	6	36	2	120	220	320	NaN	520	0.529162568971515	1	1	NaN	1365909.5238933	NaN	1365910.5074115	1365911.02394953
18	18	0	0	90	36.1581920903955	36.241610738255	23	0.766715948125348	2	5	5	NaN	1	3	0.191111655185609	0	1	NaN	352	6	37	2	120	220	320	NaN	520	1.65512762148865	1	1	NaN	1365912.374163	NaN	1365913.3577011	1365913.87423748
18	18	0	0	90	36.1581920903955	36.241610738255	24	0.800051424130797	2	11	5	NaN	2	4	0.191111655185609	0	1	NaN	353	6	38	2	120	220	320	NaN	520	0.143993268720806	2	1	NaN	1365916.3413454	NaN	1365917.3247471	1365917.84128103
18	18	0	0	90	36.1581920903955	36.241610738255	8	0.266683808043599	2	1	4	NaN	1	4	0.191111655185609	0	1	NaN	354	6	39	2	120	220	320	NaN	520	0.0103938214015216	2	0	NaN	1365918.7914506	NaN	1365919.7749997	1365920.29152478
18	18	0	0	90	36.1581920903955	36.241610738255	22	0.733380472119898	2	7	3	NaN	2	5	0.191111655185609	0	1	NaN	355	6	40	2	120	220	320	NaN	520	0.0992882214486599	2	1	NaN	1365922.4418361	NaN	1365923.4253503	1365923.94188268
18	18	0	0	90	36.1581920903955	36.241610738255	18	0.600038568098098	2	8	3	NaN	2	5	0.191111655185609	0	1	NaN	356	6	41	2	120	220	320	NaN	520	0.0104837690014392	2	1	NaN	1365924.8588277	NaN	1365925.8422415	1365926.35878103
18	18	0	0	90	36.1581920903955	36.241610738255	10	0.333354760054499	2	12	5	NaN	2	5	0.191111655185609	0	1	NaN	357	6	42	2	120	220	320	NaN	520	0.652956021483988	1	0	NaN	1365927.1924262	NaN	1365928.1758145	1365928.69235148
18	18	0	0	90	36.1581920903955	36.241610738255	17	0.566703092092648	2	7	1	NaN	2	4	0.191111655185609	0	1	NaN	358	6	43	2	120	220	320	NaN	520	1.36619966872968	2	1	NaN	1365930.1592325	NaN	1365931.1427603	1365931.65929953
18	18	0	0	90	36.1581920903955	36.241610738255	21	0.700044996114448	2	8	5	NaN	2	4	0.191111655185609	0	1	NaN	359	6	44	2	120	220	320	NaN	520	0.0104015215765685	2	1	NaN	1365933.8430543	NaN	1365934.8264524	1365935.34300478
18	18	0	0	90	36.1581920903955	36.241610738255	7	0.233348332038149	2	2	3	NaN	1	5	0.191111655185609	0	1	NaN	360	6	45	2	120	220	320	NaN	520	0.525290468707681	2	0	NaN	1365936.1599603	NaN	1365937.1433614	1365937.65989143
18	18	0	0	90	36.1581920903955	36.241610738255	6	0.200012856032699	2	9	1	NaN	2	5	0.191111655185609	0	1	NaN	361	6	46	2	120	220	320	NaN	520	0.267363568767905	2	1	NaN	1365939.0102342	NaN	1365939.9936393	1365940.51017803
18	18	0	0	90	36.1581920903955	36.241610738255	11	0.366690236059949	2	7	3	NaN	2	5	0.191111655185609	0	1	NaN	362	6	47	2	120	220	320	NaN	520	0.0834681633859873	2	1	NaN	1365941.593686	NaN	1365942.5772318	1365943.09376134
18	18	0	0	90	36.1581920903955	36.241610738255	17	0.566703092092648	2	11	2	NaN	2	4	0.191111655185609	0	1	NaN	363	6	48	2	120	220	320	NaN	520	0.0103790741413832	1	0	NaN	1365944.4107392	NaN	1365945.3941591	1365945.91070953
18	18	0	0	90	36.1581920903955	36.241610738255	8	0.266683808043599	2	9	6	NaN	2	4	0.191111655185609	0	1	NaN	364	6	49	2	120	220	320	NaN	520	0.010473616188392	1	0	NaN	1365946.7276524	NaN	1365947.7110475	1365948.22759138
18	18	0	0	90	36.1581920903955	36.241610738255	25	0.833386900136247	2	3	2	NaN	1	3	0.191111655185609	0	1	NaN	365	6	50	2	120	220	320	NaN	520	1.34991681110114	2	0	NaN	1365949.1279435	NaN	1365950.1113035	1365950.62783819
18	18	0	0	90	36.1581920903955	36.241610738255	12	0.400025712065399	2	6	6	NaN	1	3	0.191111655185609	0	1	NaN	366	6	51	2	120	220	320	NaN	520	0.0104767687153071	1	1	NaN	1365952.7947651	NaN	1365953.7783323	1365954.29486723
18	18	0	0	90	36.1581920903955	36.241610738255	12	0.400025712065399	2	11	1	NaN	2	3	0.191111655185609	0	1	NaN	367	6	52	2	120	220	320	NaN	520	0.2453598161228	2	1	NaN	1365955.1284912	NaN	1365956.1118792	1365956.62842428
18	18	0	0	90	36.1581920903955	36.241610738255	21	0.700044996114448	2	3	4	NaN	1	3	0.191111655185609	0	1	NaN	368	6	53	2	120	220	320	NaN	520	0.442950426368043	1	1	NaN	1365958.1787404	NaN	1365959.1622246	1365959.67871947
18	18	0	0	90	36.1581920903955	36.241610738255	25	0.833386900136247	2	12	4	NaN	2	5	0.191111655185609	0	1	NaN	369	6	54	2	120	220	320	NaN	520	0.131581368856132	1	0	NaN	1365960.9457404	NaN	1365961.9291361	1365962.44565843
18	18	0	0	90	36.1581920903955	36.241610738255	23	0.766715948125348	2	7	1	NaN	2	3	0.191111655185609	0	1	NaN	370	6	55	2	120	220	320	NaN	520	1.14139346894808	2	1	NaN	1365963.6960379	NaN	1365964.6793817	1365965.19592563
18	18	0	0	90	36.1581920903955	36.241610738255	7	0.233348332038149	2	5	6	NaN	1	3	0.191111655185609	0	1	NaN	371	6	56	2	120	220	320	NaN	520	0.0789504686836153	2	0	NaN	1365968.2464301	NaN	1365969.2298635	1365969.74637693
18	18	0	0	90	36.1581920903955	36.241610738255	11	0.366690236059949	2	10	1	NaN	2	5	0.191111655185609	0	1	NaN	372	6	57	2	120	220	320	NaN	520	0.0146191688254476	2	1	NaN	1365970.6466695	NaN	1365971.630053	1365972.14661383
18	18	0	0	90	36.1581920903955	36.241610738255	11	0.366690236059949	2	8	2	NaN	2	5	0.191111655185609	0	1	NaN	373	6	58	2	120	220	320	NaN	520	0.0330155687406659	2	1	NaN	1365972.9801688	NaN	1365973.9636255	1365974.48017133
18	18	0	0	90	36.1581920903955	36.241610738255	8	0.266683808043599	2	8	5	NaN	2	3	0.191111655185609	0	1	NaN	374	6	59	2	120	220	320	NaN	520	0.235249968944117	2	1	NaN	1365975.9305021	NaN	1365976.9139416	1365977.43045803
18	18	0	0	90	36.1581920903955	36.241610738255	12	0.400025712065399	2	2	2	NaN	1	5	0.191111655185609	0	1	NaN	375	6	60	2	120	220	320	NaN	520	0.0103321315255016	1	1	NaN	1365978.6974383	NaN	1365979.6808807	1365980.19740487
18	18	0	0	90	36.1581920903955	36.241610738255	11	0.366690236059949	2	12	1	NaN	2	4	0.191111655185609	0	1	NaN	376	6	61	2	120	220	320	NaN	520	0.294307468924671	1	0	NaN	1365981.0310233	NaN	1365982.0144228	1365982.53096943
18	18	0	0	90	36.1581920903955	36.241610738255	8	0.266683808043599	2	7	4	NaN	2	4	0.191111655185609	0	1	NaN	377	6	62	2	120	220	320	NaN	520	0.0104176688473672	1	0	NaN	1365983.647959	NaN	1365984.631362	1365985.14788863
18	18	0	0	90	36.1581920903955	36.241610738255	21	0.700044996114448	2	9	2	NaN	2	5	0.191111655185609	0	1	NaN	378	6	63	2	120	220	320	NaN	520	0.144006268819794	2	1	NaN	1365985.9815139	NaN	1365986.9649236	1365987.48145213
18	18	0	0	90	36.1581920903955	36.241610738255	18	0.600038568098098	2	9	2	NaN	2	3	0.191111655185609	0	1	NaN	379	7	1	2	120	220	320	NaN	520	0.542950521456078	2	1	NaN	1366009.5504672	NaN	1366010.5338897	1366011.05043618
18	18	0	0	90	36.1581920903955	36.241610738255	10	0.333354760054499	2	11	3	NaN	2	3	0.191111655185609	0	1	NaN	380	7	2	2	120	220	320	NaN	520	0.156074968632311	2	1	NaN	1366012.4174142	NaN	1366013.400845	1366013.91738983
18	18	0	0	90	36.1581920903955	36.241610738255	16	0.533367616087198	2	11	6	NaN	2	4	0.191111655185609	0	1	NaN	381	7	3	2	120	220	320	NaN	520	0.0562895690090954	2	1	NaN	1366015.7011051	NaN	1366016.6843773	1366017.20103043
18	18	0	0	90	36.1581920903955	36.241610738255	7	0.233348332038149	2	12	5	NaN	2	5	0.191111655185609	0	1	NaN	382	7	4	2	120	220	320	NaN	520	0.0493836686946452	2	1	NaN	1366018.0680265	NaN	1366019.0513677	1366019.56793693
18	18	0	0	90	36.1581920903955	36.241610738255	24	0.800051424130797	2	2	4	NaN	1	5	0.191111655185609	0	1	NaN	383	7	5	2	120	220	320	NaN	520	0.0103789367713034	2	0	NaN	1366020.4348861	NaN	1366021.4182828	1366021.93483116
18	18	0	0	90	36.1581920903955	36.241610738255	0	0	1	9	3	NaN	2	5	0.191111655185609	0	1	NaN	384	7	6	2	110	210	310	NaN	510	0.052957568783313	2	1	NaN	1366023.3678935	NaN	1366024.3519318	1366024.86845173
18	18	0	0	90	36.1581920903955	36.241610738255	24	0.800051424130797	2	11	6	NaN	2	3	0.191111655185609	0	1	NaN	385	7	7	2	120	220	320	NaN	520	0.0699843000620604	2	1	NaN	1366025.7353581	NaN	1366026.7188133	1366027.2353657
18	18	0	0	90	36.1581920903955	36.241610738255	25	0.833386900136247	2	3	1	NaN	1	4	0.191111655185609	0	1	NaN	386	7	8	2	120	220	320	NaN	520	0.0464970688335598	2	0	NaN	1366028.1189807	NaN	1366029.1023647	1366029.61891793
18	18	0	0	90	36.1581920903955	36.241610738255	18	0.600038568098098	2	10	4	NaN	2	3	0.191111655185609	0	1	NaN	387	7	9	2	120	220	320	NaN	520	0.0935380740556866	2	1	NaN	1366030.7358834	NaN	1366031.7193132	1366032.23584533
18	18	0	0	90	36.1581920903955	36.241610738255	12	0.400025712065399	2	9	3	NaN	2	3	0.191111655185609	0	1	NaN	388	7	10	2	120	220	320	NaN	520	1.1577825685963	2	1	NaN	1366033.1361776	NaN	1366034.1195545	1366034.63608083
18	18	0	0	90	36.1581920903955	36.241610738255	20	0.666709520108998	2	8	3	NaN	2	4	0.191111655185609	0	1	NaN	389	7	11	2	120	220	320	NaN	520	0.0104780688416213	2	1	NaN	1366036.7199691	NaN	1366037.7032152	1366038.21976123
18	18	0	0	90	36.1581920903955	36.241610738255	12	0.400025712065399	2	7	6	NaN	2	5	0.191111655185609	0	1	NaN	390	7	12	2	120	220	320	NaN	520	0.141831368906423	2	1	NaN	1366039.502752	NaN	1366040.4868438	1366041.00336993
18	18	0	0	90	36.1581920903955	36.241610738255	16	0.533367616087198	2	3	3	NaN	1	4	0.191111655185609	0	1	NaN	391	7	13	2	120	220	320	NaN	520	0.82711312151514	1	1	NaN	1366041.9701982	NaN	1366042.9537344	1366043.47027988
18	18	0	0	90	36.1581920903955	36.241610738255	7	0.233348332038149	2	1	4	NaN	1	5	0.191111655185609	0	1	NaN	392	7	14	2	120	220	320	NaN	520	0.373202068731189	1	1	NaN	1366045.1206561	NaN	1366046.1040366	1366046.62059443
18	18	0	0	90	36.1581920903955	36.241610738255	14	0.466696664076299	2	3	6	NaN	1	5	0.191111655185609	0	1	NaN	393	7	15	2	120	220	320	NaN	520	0.0104098687879741	1	1	NaN	1366048.50435	NaN	1366049.487725	1366050.00425783
18	18	0	0	90	36.1581920903955	36.241610738255	10	0.333354760054499	2	4	1	NaN	1	5	0.191111655185609	0	1	NaN	394	7	16	2	120	220	320	NaN	520	0.0103831740561873	1	1	NaN	1366050.837773	NaN	1366051.8213079	1366052.33782163
18	18	0	0	90	36.1581920903955	36.241610738255	9	0.300019284049049	2	11	2	NaN	2	4	0.191111655185609	0	1	NaN	395	7	17	2	120	220	320	NaN	520	2.93637842149474	2	1	NaN	1366053.6215125	NaN	1366054.6049045	1366055.12142728
18	18	0	0	90	36.1581920903955	36.241610738255	22	0.733380472119898	2	9	1	NaN	2	3	0.191111655185609	0	1	NaN	396	7	18	2	120	220	320	NaN	520	1.29342686873861	2	1	NaN	1366058.8718715	NaN	1366059.8554028	1366060.37193543
18	18	0	0	90	36.1581920903955	36.241610738255	7	0.233348332038149	2	8	3	NaN	2	4	0.191111655185609	0	1	NaN	397	7	19	2	120	220	320	NaN	520	0.0845621689222753	2	1	NaN	1366062.4890261	NaN	1366063.472409	1366063.98895403
18	18	0	0	90	36.1581920903955	36.241610738255	6	0.200012856032699	2	8	6	NaN	2	3	0.191111655185609	0	1	NaN	398	7	20	2	120	220	320	NaN	520	0.0104979162570089	1	0	NaN	1366064.8892649	NaN	1366065.8726747	1366066.38918908
18	18	0	0	90	36.1581920903955	36.241610738255	24	0.800051424130797	2	3	1	NaN	1	3	0.191111655185609	0	1	NaN	399	7	21	2	120	220	320	NaN	520	0.365386121440679	1	1	NaN	1366067.4562638	NaN	1366068.4395597	1366068.95611978
18	18	0	0	90	36.1581920903955	36.241610738255	7	0.233348332038149	2	11	1	NaN	2	5	0.191111655185609	0	1	NaN	400	7	22	2	120	220	320	NaN	520	0.417477774200961	2	1	NaN	1366070.1398806	NaN	1366071.1231953	1366071.63971143
18	18	0	0	90	36.1581920903955	36.241610738255	7	0.233348332038149	2	6	3	NaN	1	5	0.191111655185609	0	1	NaN	401	7	23	2	120	220	320	NaN	520	0.0104146688245237	1	1	NaN	1366073.8733424	NaN	1366074.8568741	1366075.37340493
18	18	0	0	90	36.1581920903955	36.241610738255	15	0.500032140081748	2	8	1	NaN	2	5	0.191111655185609	0	1	NaN	402	7	24	2	120	220	320	NaN	520	0.437685621436685	2	1	NaN	1366077.4231629	NaN	1366078.4072261	1366078.92376368
18	18	0	0	90	36.1581920903955	36.241610738255	21	0.700044996114448	2	2	1	NaN	1	3	0.191111655185609	0	1	NaN	403	7	25	2	120	220	320	NaN	520	0.0627552419900894	1	1	NaN	1366080.190748	NaN	1366081.1741492	1366081.69069436
18	18	0	0	90	36.1581920903955	36.241610738255	22	0.733380472119898	2	2	5	NaN	1	5	0.191111655185609	0	1	NaN	404	7	26	2	120	220	320	NaN	520	0.0104921162128448	1	1	NaN	1366082.5743173	NaN	1366083.5577978	1366084.07426798
18	18	0	0	90	36.1581920903955	36.241610738255	10	0.333354760054499	2	1	6	NaN	1	3	0.191111655185609	0	1	NaN	405	7	27	2	120	220	320	NaN	520	0.642399779055268	1	1	NaN	1366085.091236	NaN	1366086.0746758	1366086.59118052
18	18	0	0	90	36.1581920903955	36.241610738255	11	0.366690236059949	2	4	2	NaN	1	3	0.191111655185609	0	1	NaN	406	7	28	2	120	220	320	NaN	520	1.04654312133789	1	1	NaN	1366088.1749152	NaN	1366089.1582738	1366089.67481778
18	18	0	0	90	36.1581920903955	36.241610738255	9	0.300019284049049	2	7	1	NaN	2	4	0.191111655185609	0	1	NaN	407	7	29	2	120	220	320	NaN	520	0.413983068661764	2	1	NaN	1366091.5918718	NaN	1366092.5752701	1366093.09181273
18	18	0	0	90	36.1581920903955	36.241610738255	24	0.800051424130797	2	1	5	NaN	1	4	0.191111655185609	0	1	NaN	408	7	30	2	120	220	320	NaN	520	0.0561186687555164	2	0	NaN	1366094.3254646	NaN	1366095.3088902	1366095.82541443
18	18	0	0	90	36.1581920903955	36.241610738255	7	0.233348332038149	2	7	1	NaN	2	4	0.191111655185609	0	1	NaN	409	7	31	2	120	220	320	NaN	520	0.465149168856442	2	1	NaN	1366096.692454	NaN	1366097.6757596	1366098.19234863
18	18	0	0	90	36.1581920903955	36.241610738255	0	0	1	8	6	NaN	2	3	0.191111655185609	0	1	NaN	410	7	32	2	110	210	310	NaN	510	0.0975104214157909	1	0	NaN	1366099.4759747	NaN	1366100.4593916	1366100.97592508
18	18	0	0	90	36.1581920903955	36.241610738255	21	0.700044996114448	2	10	5	NaN	2	3	0.191111655185609	0	1	NaN	411	7	33	2	120	220	320	NaN	520	0.0104598635807633	2	1	NaN	1366101.892921	NaN	1366102.8762931	1366103.39282194
18	18	0	0	90	36.1581920903955	36.241610738255	6	0.200012856032699	2	6	4	NaN	1	5	0.191111655185609	0	1	NaN	412	7	34	2	120	220	320	NaN	520	0.96113897417672	1	1	NaN	1366104.2764531	NaN	1366105.2598593	1366105.77639683
18	18	0	0	90	36.1581920903955	36.241610738255	10	0.333354760054499	2	7	4	NaN	2	4	0.191111655185609	0	1	NaN	413	7	35	2	120	220	320	NaN	520	0.87607352132909	2	1	NaN	1366107.593406	NaN	1366108.5768515	1366109.09339258
18	18	0	0	90	36.1581920903955	36.241610738255	10	0.333354760054499	2	3	4	NaN	1	5	0.191111655185609	0	1	NaN	414	7	36	2	120	220	320	NaN	520	0.155827968847007	2	0	NaN	1366110.7938419	NaN	1366111.7771518	1366112.29369763
18	18	0	0	90	36.1581920903955	36.241610738255	22	0.733380472119898	2	12	3	NaN	2	3	0.191111655185609	0	1	NaN	415	7	37	2	120	220	320	NaN	520	0.120319326408207	2	1	NaN	1366113.2773325	NaN	1366114.260758	1366114.77728517
18	18	0	0	90	36.1581920903955	36.241610738255	9	0.300019284049049	2	1	4	NaN	1	5	0.191111655185609	0	1	NaN	416	7	38	2	120	220	320	NaN	520	0.319052368868142	1	1	NaN	1366115.7109073	NaN	1366116.6943202	1366117.21085443
18	18	0	0	90	36.1581920903955	36.241610738255	14	0.466696664076299	2	1	6	NaN	1	3	0.191111655185609	0	1	NaN	417	7	39	2	120	220	320	NaN	520	1.317517968826	1	1	NaN	1366118.3445097	NaN	1366119.3279054	1366119.84443463
18	18	0	0	90	36.1581920903955	36.241610738255	12	0.400025712065399	2	7	6	NaN	2	3	0.191111655185609	0	1	NaN	418	7	40	2	120	220	320	NaN	520	1.21957146888599	1	0	NaN	1366121.9782672	NaN	1366122.9615711	1366123.47812863
18	18	0	0	90	36.1581920903955	36.241610738255	6	0.200012856032699	2	11	1	NaN	2	4	0.191111655185609	0	1	NaN	419	7	41	2	120	220	320	NaN	520	0.0103951215278357	2	1	NaN	1366125.511937	NaN	1366126.4952625	1366127.01181428
18	18	0	0	90	36.1581920903955	36.241610738255	20	0.666709520108998	2	9	1	NaN	2	5	0.191111655185609	0	1	NaN	420	7	42	2	120	220	320	NaN	520	0.112835621461272	2	1	NaN	1366127.8287654	NaN	1366128.8121472	1366129.32870808
18	18	0	0	90	36.1581920903955	36.241610738255	0	0	1	11	5	NaN	2	4	0.191111655185609	0	1	NaN	421	7	43	2	110	210	310	NaN	510	0.10396272642538	2	1	NaN	1366130.2456991	NaN	1366131.2290751	1366131.74561527
18	18	0	0	90	36.1581920903955	36.241610738255	24	0.800051424130797	2	4	4	NaN	1	5	0.191111655185609	0	1	NaN	422	7	44	2	120	220	320	NaN	520	0.0230056161526591	1	1	NaN	1366132.6625697	NaN	1366133.6459798	1366134.16250968
18	18	0	0	90	36.1581920903955	36.241610738255	13	0.433361188070849	2	10	6	NaN	2	5	0.191111655185609	0	1	NaN	423	7	45	2	120	220	320	NaN	520	0.774588899919763	2	1	NaN	1366137.0628759	NaN	1366138.0464083	1366138.5629507
18	18	0	0	90	36.1581920903955	36.241610738255	8	0.266683808043599	2	3	1	NaN	1	5	0.191111655185609	0	1	NaN	424	7	46	2	120	220	320	NaN	520	0.0104342161212116	1	1	NaN	1366141.1633515	NaN	1366142.1467961	1366142.66333968
18	18	0	0	90	36.1581920903955	36.241610738255	21	0.700044996114448	2	6	5	NaN	1	5	0.191111655185609	0	1	NaN	425	7	47	2	120	220	320	NaN	520	0.0104075688868761	2	0	NaN	1366143.4969571	NaN	1366144.4803748	1366144.99691403
18	18	0	0	90	36.1581920903955	36.241610738255	13	0.433361188070849	2	7	3	NaN	2	5	0.191111655185609	0	1	NaN	426	7	48	2	120	220	320	NaN	520	0.450316826347262	2	1	NaN	1366148.7474712	NaN	1366149.7308923	1366150.24744297
18	18	0	0	90	36.1581920903955	36.241610738255	18	0.600038568098098	2	6	1	NaN	1	3	0.191111655185609	0	1	NaN	427	7	49	2	120	220	320	NaN	520	0.0619230214506388	1	1	NaN	1366151.6475837	NaN	1366152.6312402	1366153.14771148
18	18	0	0	90	36.1581920903955	36.241610738255	6	0.200012856032699	2	5	3	NaN	1	3	0.191111655185609	0	1	NaN	428	7	50	2	120	220	320	NaN	520	0.462323121493682	1	1	NaN	1366154.031377	NaN	1366155.014738	1366155.53127978
18	18	0	0	90	36.1581920903955	36.241610738255	0	0	1	10	2	NaN	2	4	0.191111655185609	0	1	NaN	429	7	51	2	110	210	310	NaN	510	0.536383668892086	1	0	NaN	1366158.3650783	NaN	1366159.3484961	1366159.86503693
18	18	0	0	90	36.1581920903955	36.241610738255	14	0.466696664076299	2	7	4	NaN	2	5	0.191111655185609	0	1	NaN	430	7	52	2	120	220	320	NaN	520	0.0862234688829631	2	1	NaN	1366161.415384	NaN	1366162.3987669	1366162.91534553
18	18	0	0	90	36.1581920903955	36.241610738255	19	0.633374044103548	2	8	2	NaN	2	3	0.191111655185609	0	1	NaN	431	7	53	2	120	220	320	NaN	520	0.0292876895982772	1	0	NaN	1366164.0323089	NaN	1366165.0157252	1366165.53225861
18	18	0	0	90	36.1581920903955	36.241610738255	12	0.400025712065399	2	4	1	NaN	1	5	0.191111655185609	0	1	NaN	432	7	54	2	120	220	320	NaN	520	0.0104126690421253	1	1	NaN	1366166.3825307	NaN	1366167.3659546	1366167.88248973
18	18	0	0	90	36.1581920903955	36.241610738255	16	0.533367616087198	2	8	4	NaN	2	4	0.191111655185609	0	1	NaN	433	7	55	2	120	220	320	NaN	520	0.0104407214093953	2	1	NaN	1366169.0326693	NaN	1366170.016227	1366170.53275078
18	18	0	0	90	36.1581920903955	36.241610738255	15	0.500032140081748	2	2	1	NaN	1	5	0.191111655185609	0	1	NaN	434	7	56	2	120	220	320	NaN	520	0.0104128688108176	1	1	NaN	1366171.3662191	NaN	1366172.349671	1366172.86630863
18	18	0	0	90	36.1581920903955	36.241610738255	17	0.566703092092648	2	11	3	NaN	2	4	0.191111655185609	0	1	NaN	435	7	57	2	120	220	320	NaN	520	0.0104006214533001	1	0	NaN	1366173.6832723	NaN	1366174.6666824	1366175.18321118
18	18	0	0	90	36.1581920903955	36.241610738255	13	0.433361188070849	2	10	6	NaN	2	3	0.191111655185609	0	1	NaN	436	7	58	2	120	220	320	NaN	520	0.0936266689095646	2	1	NaN	1366176.0001435	NaN	1366176.9835817	1366177.50009833
18	18	0	0	90	36.1581920903955	36.241610738255	25	0.833386900136247	2	6	1	NaN	1	3	0.191111655185609	0	1	NaN	437	7	59	2	120	220	320	NaN	520	0.0102993999607861	1	1	NaN	1366178.4170882	NaN	1366179.4004542	1366179.9170067
18	18	0	0	90	36.1581920903955	36.241610738255	11	0.366690236059949	2	11	3	NaN	2	3	0.191111655185609	0	1	NaN	438	7	60	2	120	220	320	NaN	520	0.432823521317914	2	1	NaN	1366183.3008393	NaN	1366184.2843142	1366184.80081148
18	18	0	0	90	36.1581920903955	36.241610738255	9	0.300019284049049	2	5	2	NaN	1	5	0.191111655185609	0	1	NaN	439	7	61	2	120	220	320	NaN	520	1.20299286884256	2	0	NaN	1366186.0511607	NaN	1366187.0345497	1366187.55108753
18	18	0	0	90	36.1581920903955	36.241610738255	18	0.600038568098098	2	12	4	NaN	2	5	0.191111655185609	0	1	NaN	440	7	62	2	120	220	320	NaN	520	0.0104068687651306	2	1	NaN	1366189.5681446	NaN	1366190.5515642	1366191.06809173
18	18	0	0	90	36.1581920903955	36.241610738255	20	0.666709520108998	2	12	3	NaN	2	3	0.191111655185609	0	1	NaN	441	7	63	2	120	220	320	NaN	520	0.0292949634604156	2	1	NaN	1366192.5684683	NaN	1366193.551885	1366194.06839004
18	18	0	0	90	36.1581920903955	36.241610738255	11	0.366690236059949	2	7	4	NaN	2	5	0.191111655185609	0	1	NaN	442	8	1	2	120	220	320	NaN	520	0.129736363422126	2	1	NaN	1366211.8203208	NaN	1366212.8037693	1366213.32027534
18	18	0	0	90	36.1581920903955	36.241610738255	17	0.566703092092648	2	6	5	NaN	1	3	0.191111655185609	0	1	NaN	443	8	2	2	120	220	320	NaN	520	0.0104819689877331	1	1	NaN	1366214.2540116	NaN	1366215.2373319	1366215.75386663
18	18	0	0	90	36.1581920903955	36.241610738255	9	0.300019284049049	2	3	1	NaN	1	3	0.191111655185609	0	1	NaN	444	8	3	2	120	220	320	NaN	520	0.114342968910933	2	0	NaN	1366216.587477	NaN	1366217.570901	1366218.08741583
18	18	0	0	90	36.1581920903955	36.241610738255	23	0.766715948125348	2	4	1	NaN	1	3	0.191111655185609	0	1	NaN	445	8	4	2	120	220	320	NaN	520	1.00022302148864	1	1	NaN	1366219.0377253	NaN	1366220.0211495	1366220.53765788
18	18	0	0	90	36.1581920903955	36.241610738255	10	0.333354760054499	2	9	3	NaN	2	5	0.191111655185609	0	1	NaN	446	8	5	2	120	220	320	NaN	520	0.746435068780556	2	1	NaN	1366222.371388	NaN	1366223.3547797	1366223.87131173
18	18	0	0	90	36.1581920903955	36.241610738255	21	0.700044996114448	2	10	3	NaN	2	4	0.191111655185609	0	1	NaN	447	8	6	2	120	220	320	NaN	520	0.543715353123844	2	1	NaN	1366225.438364	NaN	1366226.4216951	1366226.93827215
18	18	0	0	90	36.1581920903955	36.241610738255	13	0.433361188070849	2	11	6	NaN	2	4	0.191111655185609	0	1	NaN	448	8	7	2	120	220	320	NaN	520	0.0104436741676182	2	1	NaN	1366228.3052984	NaN	1366229.2887156	1366229.80523893
18	18	0	0	90	36.1581920903955	36.241610738255	24	0.800051424130797	2	7	3	NaN	2	3	0.191111655185609	0	1	NaN	449	8	8	2	120	220	320	NaN	520	0.010515911038965	2	1	NaN	1366230.6388413	NaN	1366231.6222568	1366232.13880329
18	18	0	0	90	36.1581920903955	36.241610738255	21	0.700044996114448	2	5	1	NaN	1	4	0.191111655185609	0	1	NaN	450	8	9	2	120	220	320	NaN	520	0.353753368835896	2	0	NaN	1366232.9724489	NaN	1366233.9558252	1366234.47235603
18	18	0	0	90	36.1581920903955	36.241610738255	23	0.766715948125348	2	2	5	NaN	1	3	0.191111655185609	0	1	NaN	451	8	10	2	120	220	320	NaN	520	0.0103943212889135	1	1	NaN	1366235.6560197	NaN	1366236.6394552	1366237.15597068
18	18	0	0	90	36.1581920903955	36.241610738255	11	0.366690236059949	2	2	3	NaN	1	4	0.191111655185609	0	1	NaN	452	8	11	2	120	220	320	NaN	520	0.488612568937242	1	1	NaN	1366237.9895822	NaN	1366238.9729726	1366239.48951973
18	18	0	0	90	36.1581920903955	36.241610738255	15	0.500032140081748	2	5	3	NaN	1	5	0.191111655185609	0	1	NaN	453	8	12	2	120	220	320	NaN	520	1.51118866866454	1	1	NaN	1366240.8065217	NaN	1366241.7899202	1366242.30645783
18	18	0	0	90	36.1581920903955	36.241610738255	17	0.566703092092648	2	10	5	NaN	2	4	0.191111655185609	0	1	NaN	454	8	13	2	120	220	320	NaN	520	0.41356746875681	1	0	NaN	1366244.6402414	NaN	1366245.6236955	1366246.14016543
18	18	0	0	90	36.1581920903955	36.241610738255	9	0.300019284049049	2	8	5	NaN	2	3	0.191111655185609	0	1	NaN	455	8	14	2	120	220	320	NaN	520	0.0103761265054345	2	1	NaN	1366247.3738167	NaN	1366248.3572167	1366248.87377737
18	18	0	0	90	36.1581920903955	36.241610738255	25	0.833386900136247	2	11	3	NaN	2	5	0.191111655185609	0	1	NaN	456	8	15	2	120	220	320	NaN	520	0.611401926493272	2	1	NaN	1366249.6906515	NaN	1366250.6741358	1366251.19066707
18	18	0	0	90	36.1581920903955	36.241610738255	14	0.466696664076299	2	1	2	NaN	1	3	0.191111655185609	0	1	NaN	457	8	16	2	120	220	320	NaN	520	1.4064910216257	2	0	NaN	1366252.607673	NaN	1366253.5910712	1366254.10761698
18	18	0	0	90	36.1581920903955	36.241610738255	7	0.233348332038149	2	7	4	NaN	2	4	0.191111655185609	0	1	NaN	458	8	17	2	120	220	320	NaN	520	1.26410522148944	2	1	NaN	1366256.3413567	NaN	1366257.3247848	1366257.84131268
18	18	0	0	90	36.1581920903955	36.241610738255	24	0.800051424130797	2	8	4	NaN	2	3	0.191111655185609	0	1	NaN	459	8	18	2	120	220	320	NaN	520	0.0102712423540652	1	0	NaN	1366259.925047	NaN	1366260.9084643	1366261.42500996
