subjno	age	gender	isPractice	viewdist	CmToPixX	CmToPixY	SOA_frm	SOA_time	targNum	targID	targExample	targRace	targGender	firstTargPos	contrast	familiarity	curr_staircase	iStair	TrialNum	BlockNum	blktrl	sessionNum	TC_FIXATION	TC_RSVP_START	TC_RSVP_END	TC_BLANK	TC_RESPONSE_ONSET	RT2afc	resp_2afc	acc	RSVPOnsetVBL	RSVPOnsetTime	RSVPOffsetVBL	RSVPOffsetTime	startrt_2afc
96	19	0	0	90	36.1581920903955	36.241610738255	24	0.80007916778326	2	4	4	NaN	1	4	0.127937622744553	1	1	NaN	1	1	1	1	121	221	321	NaN	521	1.00526527874172	2	0	NaN	4401423.4854235	NaN	4401424.4686854	4401425.00180782
96	19	0	0	90	36.1581920903955	36.241610738255	15	0.500049479864538	2	12	2	NaN	2	4	0.127937622744553	1	1	NaN	2	1	2	1	121	221	321	NaN	521	0.861572475172579	1	0	NaN	4401426.8690604	NaN	4401427.8523426	4401428.38547172
96	19	0	0	90	36.1581920903955	36.241610738255	6	0.200019791945815	2	1	6	NaN	1	5	0.127937622744553	1	1	NaN	3	1	3	1	121	221	321	NaN	521	0.675701327621937	1	1	NaN	4401430.9191921	NaN	4401431.9026585	4401432.41920147
96	19	0	0	90	36.1581920903955	36.241610738255	8	0.266693055927753	2	7	4	NaN	2	5	0.127937622744553	1	1	NaN	4	1	4	1	121	221	321	NaN	521	0.915850735269487	2	1	NaN	4401433.9195454	NaN	4401434.9029687	4401435.41949946
96	19	0	0	90	36.1581920903955	36.241610738255	14	0.466712847873569	2	5	1	NaN	1	5	0.127937622744553	1	1	NaN	5	1	5	1	121	221	321	NaN	521	0.698242226615548	1	1	NaN	4401437.1531051	NaN	4401438.1365929	4401438.65315817
96	19	0	0	90	36.1581920903955	36.241610738255	7	0.233356423936784	2	6	1	NaN	1	5	0.127937622744553	1	1	NaN	6	1	6	1	121	221	321	NaN	521	0.608543127775192	1	1	NaN	4401440.1701674	NaN	4401441.1535612	4401441.67010837
96	19	0	0	90	36.1581920903955	36.241610738255	21	0.700069271810353	2	3	2	NaN	1	3	0.127937622744553	1	1	NaN	7	1	7	1	121	221	321	NaN	521	1.13118857517838	2	0	NaN	4401443.1038139	NaN	4401444.0871885	4401444.60373252
96	19	0	0	90	36.1581920903955	36.241610738255	17	0.566722743846476	2	7	1	NaN	2	4	0.127937622744553	1	1	NaN	8	1	8	1	121	221	321	NaN	521	1.00070462748408	2	1	NaN	4401446.5541206	NaN	4401447.5375227	4401448.05407987
96	19	0	0	90	36.1581920903955	36.241610738255	14	0.466712847873569	2	9	3	NaN	2	4	0.127937622744553	1	1	NaN	9	1	9	1	121	221	321	NaN	521	1.31626137532294	1	0	NaN	4401449.8711229	NaN	4401450.8545182	4401451.37106773
96	19	0	0	90	36.1581920903955	36.241610738255	6	0.200019791945815	2	2	4	NaN	1	3	0.127937622744553	1	1	NaN	10	1	10	1	121	221	321	NaN	521	0.674541227519512	1	1	NaN	4401453.5046994	NaN	4401454.4882344	4401455.00475837
96	19	0	0	90	36.1581920903955	36.241610738255	14	0.466712847873569	2	8	4	NaN	2	5	0.127937622744553	1	1	NaN	11	1	11	1	121	221	321	NaN	521	1.13021302781999	2	1	NaN	4401456.5051007	NaN	4401457.4884912	4401458.00505807
96	19	0	0	90	36.1581920903955	36.241610738255	7	0.233356423936784	2	7	3	NaN	2	4	0.127937622744553	1	1	NaN	12	1	12	1	121	221	321	NaN	521	0.807541375048459	1	0	NaN	4401459.9554316	NaN	4401460.9388362	4401461.45539473
96	19	0	0	90	36.1581920903955	36.241610738255	22	0.733405903801322	2	3	6	NaN	1	4	0.127937622744553	1	1	NaN	13	1	13	1	121	221	321	NaN	521	0.714598827064037	1	1	NaN	4401463.0722856	NaN	4401464.0558144	4401464.57236957
96	19	0	0	90	36.1581920903955	36.241610738255	12	0.40003958389163	2	9	3	NaN	2	4	0.127937622744553	1	1	NaN	14	1	14	1	121	221	321	NaN	521	1.33722892776132	1	0	NaN	4401466.1060459	NaN	4401467.0894411	4401467.60600347
96	19	0	0	90	36.1581920903955	36.241610738255	25	0.83341579977423	2	10	4	NaN	2	5	0.127937622744553	1	1	NaN	15	1	15	1	121	221	321	NaN	521	1.57392052747309	2	1	NaN	4401469.7730758	NaN	4401470.7564752	4401471.27302997
96	19	0	0	90	36.1581920903955	36.241610738255	15	0.500049479864538	2	1	6	NaN	1	3	0.127937622744553	1	1	NaN	16	1	16	1	121	221	321	NaN	521	1.02592882700264	1	1	NaN	4401473.6734468	NaN	4401474.6568695	4401475.17340477
96	19	0	0	90	36.1581920903955	36.241610738255	7	0.233356423936784	2	12	3	NaN	2	5	0.127937622744553	1	1	NaN	17	1	17	1	121	221	321	NaN	521	1.36314452718943	2	1	NaN	4401477.0237906	NaN	4401478.0071928	4401478.52374507
96	19	0	0	90	36.1581920903955	36.241610738255	17	0.566722743846476	2	8	5	NaN	2	5	0.127937622744553	1	1	NaN	18	1	18	1	121	221	321	NaN	521	2.84742272738367	2	1	NaN	4401480.7074829	NaN	4401481.6909207	4401482.20743827
96	19	0	0	90	36.1581920903955	36.241610738255	17	0.566722743846476	2	4	4	NaN	1	3	0.127937622744553	1	1	NaN	19	1	19	1	121	221	321	NaN	521	3.22447106614709	1	1	NaN	4401485.8746674	NaN	4401486.8580761	4401487.37461193
96	19	0	0	90	36.1581920903955	36.241610738255	10	0.333366319909692	2	1	6	NaN	1	4	0.127937622744553	1	1	NaN	20	1	20	1	121	221	321	NaN	521	0.762838426977396	1	1	NaN	4401491.4085388	NaN	4401492.3919382	4401492.90849357
96	19	0	0	90	36.1581920903955	36.241610738255	24	0.80007916778326	2	7	6	NaN	2	3	0.127937622744553	1	1	NaN	21	1	21	1	121	221	321	NaN	521	2.24691314343363	2	1	NaN	4401494.4920655	NaN	4401495.4755698	4401495.99212446
96	19	0	0	90	36.1581920903955	36.241610738255	23	0.766742535792291	2	3	6	NaN	1	5	0.127937622744553	1	1	NaN	22	1	22	1	121	221	321	NaN	521	1.3836935274303	1	1	NaN	4401499.0592918	NaN	4401500.0426859	4401500.55923667
96	19	0	0	90	36.1581920903955	36.241610738255	7	0.233356423936784	2	1	1	NaN	1	4	0.127937622744553	1	1	NaN	23	1	23	1	121	221	321	NaN	521	0.978171963244677	1	1	NaN	4401502.7929892	NaN	4401503.7763898	4401504.29293474
96	19	0	0	90	36.1581920903955	36.241610738255	6	0.200019791945815	2	11	3	NaN	2	3	0.127937622744553	1	1	NaN	24	1	24	1	121	221	321	NaN	521	1.32610612362623	2	1	NaN	4401506.0931769	NaN	4401507.0767022	4401507.59326628
96	19	0	0	90	36.1581920903955	36.241610738255	17	0.566722743846476	2	10	4	NaN	2	5	0.127937622744553	1	1	NaN	25	1	25	1	121	221	321	NaN	521	1.05172422807664	2	1	NaN	4401509.7436766	NaN	4401510.7270795	4401511.24363027
96	19	0	0	90	36.1581920903955	36.241610738255	6	0.200019791945815	2	5	1	NaN	1	4	0.127937622744553	1	1	NaN	26	1	26	1	121	221	321	NaN	521	0.700690871104598	1	1	NaN	4401513.1107144	NaN	4401514.0941339	4401514.61061503
96	19	0	0	90	36.1581920903955	36.241610738255	10	0.333366319909692	2	11	2	NaN	2	4	0.127937622744553	1	1	NaN	27	1	27	1	121	221	321	NaN	521	1.33149457536638	2	1	NaN	4401516.1276436	NaN	4401517.1110321	4401517.62758532
96	19	0	0	90	36.1581920903955	36.241610738255	13	0.433376215882599	2	4	1	NaN	1	5	0.127937622744553	1	1	NaN	28	1	28	1	121	221	321	NaN	521	0.737225627526641	1	1	NaN	4401519.7779205	NaN	4401520.761517	4401521.27794337
96	19	0	0	90	36.1581920903955	36.241610738255	19	0.633396007828414	2	1	3	NaN	1	5	0.127937622744553	1	1	NaN	29	1	29	1	121	221	321	NaN	521	1.66374912671745	1	1	NaN	4401523.411674	NaN	4401524.3951191	4401524.91163527
96	19	0	0	90	36.1581920903955	36.241610738255	18	0.600059375837445	2	7	5	NaN	2	5	0.127937622744553	1	1	NaN	30	1	30	1	121	221	321	NaN	521	0.632075083442032	2	1	NaN	4401527.3954431	NaN	4401528.3787894	4401528.89535972
96	19	0	0	90	36.1581920903955	36.241610738255	15	0.500049479864538	2	4	4	NaN	1	5	0.127937622744553	1	1	NaN	31	1	31	1	121	221	321	NaN	521	0.697779675014317	1	1	NaN	4401530.3457002	NaN	4401531.329135	4401531.84565073
96	19	0	0	90	36.1581920903955	36.241610738255	10	0.333366319909692	2	5	2	NaN	1	5	0.127937622744553	1	1	NaN	32	1	32	1	121	221	321	NaN	521	2.23242423590273	1	1	NaN	4401533.9628045	NaN	4401534.9460882	4401535.46268116
96	19	0	0	90	36.1581920903955	36.241610738255	15	0.500049479864538	2	7	4	NaN	2	4	0.127937622744553	1	1	NaN	33	1	33	1	121	221	321	NaN	521	3.22615337464958	2	1	NaN	4401538.5131878	NaN	4401539.4965661	4401540.01311713
96	19	0	0	90	36.1581920903955	36.241610738255	23	0.766742535792291	2	8	4	NaN	2	3	0.127937622744553	1	1	NaN	34	1	34	1	121	221	321	NaN	521	0.732176675461233	2	1	NaN	4401544.0470388	NaN	4401545.0304435	4401545.54699032
96	19	0	0	90	36.1581920903955	36.241610738255	22	0.733405903801322	2	4	5	NaN	1	5	0.127937622744553	1	1	NaN	35	1	35	1	121	221	321	NaN	521	1.71430312748998	1	1	NaN	4401547.0973465	NaN	4401548.0807375	4401548.59730047
96	19	0	0	90	36.1581920903955	36.241610738255	19	0.633396007828414	2	2	5	NaN	1	5	0.127937622744553	1	1	NaN	36	1	36	1	121	221	321	NaN	521	1.08028777502477	1	1	NaN	4401551.131069	NaN	4401552.1144696	4401552.63102472
96	19	0	0	90	36.1581920903955	36.241610738255	12	0.40003958389163	2	3	3	NaN	1	4	0.127937622744553	1	1	NaN	37	1	37	1	121	221	321	NaN	521	0.496045975014567	1	1	NaN	4401554.5314372	NaN	4401555.5148098	4401556.03136383
96	19	0	0	90	36.1581920903955	36.241610738255	10	0.333366319909692	2	7	4	NaN	2	3	0.127937622744553	1	1	NaN	38	1	38	1	121	221	321	NaN	521	1.3835433749482	2	1	NaN	4401557.3316252	NaN	4401558.3150701	4401558.83163503
96	19	0	0	90	36.1581920903955	36.241610738255	17	0.566722743846476	2	10	3	NaN	2	4	0.127937622744553	1	1	NaN	39	1	39	1	121	221	321	NaN	521	1.39501837547868	1	0	NaN	4401561.0320668	NaN	4401562.0154506	4401562.53200222
96	19	0	0	90	36.1581920903955	36.241610738255	18	0.600059375837445	2	3	3	NaN	1	4	0.127937622744553	1	1	NaN	40	1	40	1	121	221	321	NaN	521	0.309855727478862	1	1	NaN	4401564.749096	NaN	4401565.7324788	4401566.24904017
96	19	0	0	90	36.1581920903955	36.241610738255	9	0.300029687918723	2	8	5	NaN	2	4	0.127937622744553	1	1	NaN	41	1	41	1	121	221	321	NaN	521	0.365145327523351	2	1	NaN	4401567.3658759	NaN	4401568.3494048	4401568.86595857
96	19	0	0	90	36.1581920903955	36.241610738255	21	0.700069271810353	2	8	1	NaN	2	4	0.127937622744553	1	1	NaN	42	1	42	1	121	221	321	NaN	521	1.02587082702667	2	1	NaN	4401570.0496054	NaN	4401571.0330158	4401571.54956087
96	19	0	0	90	36.1581920903955	36.241610738255	21	0.700069271810353	2	5	4	NaN	1	4	0.127937622744553	1	1	NaN	43	1	43	1	121	221	321	NaN	521	0.539522427134216	1	1	NaN	4401573.3999278	NaN	4401574.3833306	4401574.89988417
96	19	0	0	90	36.1581920903955	36.241610738255	9	0.300029687918723	2	11	4	NaN	2	4	0.127937622744553	1	1	NaN	44	1	44	1	121	221	321	NaN	521	0.817299975082278	2	1	NaN	4401576.2502057	NaN	4401577.2336062	4401577.75016552
96	19	0	0	90	36.1581920903955	36.241610738255	18	0.600059375837445	2	12	4	NaN	2	3	0.127937622744553	1	1	NaN	45	1	45	1	121	221	321	NaN	521	0.987251275219023	2	1	NaN	4401579.3838655	NaN	4401580.3672399	4401580.88380282
96	19	0	0	90	36.1581920903955	36.241610738255	20	0.666732639819384	2	10	5	NaN	2	4	0.127937622744553	1	1	NaN	46	1	46	1	121	221	321	NaN	521	0.935043775476515	2	1	NaN	4401582.6841722	NaN	4401583.6675706	4401584.18412802
96	19	0	0	90	36.1581920903955	36.241610738255	20	0.666732639819384	2	7	6	NaN	2	3	0.127937622744553	1	1	NaN	47	1	47	1	121	221	321	NaN	521	0.661007175222039	2	1	NaN	4401585.9344958	NaN	4401586.917899	4401587.43444952
96	19	0	0	90	36.1581920903955	36.241610738255	6	0.200019791945815	2	3	3	NaN	1	3	0.127937622744553	1	1	NaN	48	1	48	1	121	221	321	NaN	521	0.901754574850202	1	1	NaN	4401588.9014512	NaN	4401589.8848569	4401590.40140133
96	19	0	0	90	36.1581920903955	36.241610738255	16	0.533386111855507	2	7	2	NaN	2	5	0.127937622744553	1	1	NaN	49	1	49	1	121	221	321	NaN	521	0.78161817509681	2	1	NaN	4401592.1017726	NaN	4401593.0851529	4401593.60172222
96	19	0	0	90	36.1581920903955	36.241610738255	16	0.533386111855507	2	11	6	NaN	2	3	0.127937622744553	1	1	NaN	50	1	50	1	121	221	321	NaN	521	0.392763523384929	2	1	NaN	4401595.4186676	NaN	4401596.4021917	4401596.91871718
96	19	0	0	90	36.1581920903955	36.241610738255	9	0.300029687918723	2	2	2	NaN	1	4	0.127937622744553	1	1	NaN	51	1	51	1	121	221	321	NaN	521	0.7959826271981	1	1	NaN	4401598.1190511	NaN	4401599.1024294	4401599.61898697
96	19	0	0	90	36.1581920903955	36.241610738255	13	0.433376215882599	2	5	5	NaN	1	3	0.127937622744553	1	1	NaN	52	1	52	1	121	221	321	NaN	521	0.831946727819741	1	1	NaN	4401601.2193467	NaN	4401602.2027326	4401602.71929187
96	19	0	0	90	36.1581920903955	36.241610738255	13	0.433376215882599	2	10	2	NaN	2	5	0.127937622744553	1	1	NaN	53	1	53	1	121	221	321	NaN	521	1.05786042753607	2	1	NaN	4401604.3696598	NaN	4401605.3530884	4401605.86960267
96	19	0	0	90	36.1581920903955	36.241610738255	8	0.266693055927753	2	12	5	NaN	2	4	0.127937622744553	1	1	NaN	54	1	54	1	121	221	321	NaN	521	1.49881477467716	2	1	NaN	4401607.7365066	NaN	4401608.7200538	4401609.23658593
96	19	0	0	90	36.1581920903955	36.241610738255	24	0.80007916778326	2	6	5	NaN	1	3	0.127937622744553	1	1	NaN	55	1	55	1	121	221	321	NaN	521	1.26562772784382	2	0	NaN	4401611.5536749	NaN	4401612.5370882	4401613.05363897
96	19	0	0	90	36.1581920903955	36.241610738255	23	0.766742535792291	2	1	3	NaN	1	5	0.127937622744553	1	1	NaN	56	1	56	1	121	221	321	NaN	521	1.21791787538677	1	1	NaN	4401615.1373732	NaN	4401616.1207696	4401616.63732252
96	19	0	0	90	36.1581920903955	36.241610738255	18	0.600059375837445	2	1	5	NaN	1	4	0.127937622744553	1	1	NaN	57	1	57	1	121	221	321	NaN	521	1.18041892815381	1	1	NaN	4401618.6710419	NaN	4401619.6544752	4401620.17100527
96	19	0	0	90	36.1581920903955	36.241610738255	8	0.266693055927753	2	9	6	NaN	2	5	0.127937622744553	1	1	NaN	58	1	58	1	121	221	321	NaN	521	1.64638727530837	2	1	NaN	4401622.6047508	NaN	4401623.5881712	4401624.10471983
96	19	0	0	90	36.1581920903955	36.241610738255	20	0.666732639819384	2	11	2	NaN	2	3	0.127937622744553	1	1	NaN	59	1	59	1	121	221	321	NaN	521	0.679687974974513	2	1	NaN	4401626.5718414	NaN	4401627.5552305	4401628.07177102
96	19	0	0	90	36.1581920903955	36.241610738255	10	0.333366319909692	2	2	3	NaN	1	3	0.127937622744553	1	1	NaN	60	1	60	1	121	221	321	NaN	521	0.652593075297773	1	1	NaN	4401630.4388521	NaN	4401631.4222708	4401631.93882162
96	19	0	0	90	36.1581920903955	36.241610738255	23	0.766742535792291	2	3	5	NaN	1	3	0.127937622744553	1	1	NaN	61	1	61	1	121	221	321	NaN	521	1.38972817547619	1	1	NaN	4401633.4057033	NaN	4401634.3892284	4401634.90578292
96	19	0	0	90	36.1581920903955	36.241610738255	13	0.433376215882599	2	11	3	NaN	2	4	0.127937622744553	1	1	NaN	62	1	62	1	121	221	321	NaN	521	2.01734522730112	1	0	NaN	4401637.1060966	NaN	4401638.0895832	4401638.60615207
96	19	0	0	90	36.1581920903955	36.241610738255	10	0.333366319909692	2	9	4	NaN	2	5	0.127937622744553	1	1	NaN	63	1	63	1	121	221	321	NaN	521	2.9636902268976	1	0	NaN	4401641.4399587	NaN	4401642.4234448	4401642.93990977
96	19	0	0	90	36.1581920903955	36.241610738255	22	0.733405903801322	2	9	1	NaN	2	3	0.127937622744553	1	1	NaN	64	2	1	1	121	221	321	NaN	521	0.817577974870801	1	0	NaN	4401669.0260547	NaN	4401670.0093997	4401670.52596122
96	19	0	0	90	36.1581920903955	36.241610738255	21	0.700069271810353	2	7	5	NaN	2	4	0.127937622744553	1	1	NaN	65	2	2	1	121	221	321	NaN	521	1.54756612703204	2	1	NaN	4401672.1596363	NaN	4401673.1430453	4401673.65959997
96	19	0	0	90	36.1581920903955	36.241610738255	10	0.333366319909692	2	6	2	NaN	1	3	0.127937622744553	1	1	NaN	66	2	3	1	121	221	321	NaN	521	0.864972175098956	1	1	NaN	4401676.0265661	NaN	4401677.010099	4401677.52664222
96	19	0	0	90	36.1581920903955	36.241610738255	10	0.333366319909692	2	4	6	NaN	1	4	0.127937622744553	1	1	NaN	67	2	4	1	121	221	321	NaN	521	0.705316226929426	1	1	NaN	4401679.6102224	NaN	4401680.5937802	4401681.11033227
96	19	0	0	90	36.1581920903955	36.241610738255	14	0.466712847873569	2	6	1	NaN	1	4	0.127937622744553	1	1	NaN	68	2	5	1	121	221	321	NaN	521	0.802274875342846	1	1	NaN	4401683.1773708	NaN	4401684.1607246	4401684.67733982
96	19	0	0	90	36.1581920903955	36.241610738255	13	0.433376215882599	2	12	3	NaN	2	4	0.127937622744553	1	1	NaN	69	2	6	1	121	221	321	NaN	521	3.23695302754641	2	1	NaN	4401686.2943257	NaN	4401687.2778016	4401687.79432207
96	19	0	0	90	36.1581920903955	36.241610738255	15	0.500049479864538	2	10	6	NaN	2	3	0.127937622744553	1	1	NaN	70	2	7	1	121	221	321	NaN	521	0.750451627187431	2	1	NaN	4401691.8447861	NaN	4401692.8283088	4401693.34486387
96	19	0	0	90	36.1581920903955	36.241610738255	16	0.533386111855507	2	1	5	NaN	1	5	0.127937622744553	1	1	NaN	71	2	8	1	121	221	321	NaN	521	1.48384992778301	1	1	NaN	4401694.9118773	NaN	4401695.8952906	4401696.41182787
96	19	0	0	90	36.1581920903955	36.241610738255	19	0.633396007828414	2	5	1	NaN	1	5	0.127937622744553	1	1	NaN	72	2	9	1	121	221	321	NaN	521	1.07133582700044	1	1	NaN	4401699.995658	NaN	4401700.9791145	4401701.49566847
96	19	0	0	90	36.1581920903955	36.241610738255	22	0.733405903801322	2	12	1	NaN	2	3	0.127937622744553	1	1	NaN	73	2	10	1	121	221	321	NaN	521	0.904057026840746	2	1	NaN	4401703.3793524	NaN	4401704.3627805	4401704.87933587
96	19	0	0	90	36.1581920903955	36.241610738255	11	0.366702951900661	2	1	6	NaN	1	4	0.127937622744553	1	1	NaN	74	2	11	1	121	221	321	NaN	521	0.47927987575531	1	1	NaN	4401706.5963553	NaN	4401707.5797655	4401708.09631762
96	19	0	0	90	36.1581920903955	36.241610738255	20	0.666732639819384	2	6	5	NaN	1	3	0.127937622744553	1	1	NaN	75	2	12	1	121	221	321	NaN	521	1.27073627896607	1	1	NaN	4401709.3966284	NaN	4401710.3800177	4401710.89659422
96	19	0	0	90	36.1581920903955	36.241610738255	16	0.533386111855507	2	11	3	NaN	2	5	0.127937622744553	1	1	NaN	76	2	13	1	121	221	321	NaN	521	0.679230927489698	2	1	NaN	4401712.9803221	NaN	4401713.9637321	4401714.48027797
96	19	0	0	90	36.1581920903955	36.241610738255	17	0.566722743846476	2	5	3	NaN	1	4	0.127937622744553	1	1	NaN	77	2	14	1	121	221	321	NaN	521	0.582897127605975	1	1	NaN	4401715.9806047	NaN	4401716.9640736	4401717.48057297
96	19	0	0	90	36.1581920903955	36.241610738255	8	0.266693055927753	2	7	2	NaN	2	5	0.127937622744553	1	1	NaN	78	2	15	1	121	221	321	NaN	521	0.498650726862252	2	1	NaN	4401718.8808996	NaN	4401719.8642952	4401720.38085117
96	19	0	0	90	36.1581920903955	36.241610738255	19	0.633396007828414	2	11	4	NaN	2	4	0.127937622744553	1	1	NaN	79	2	16	1	121	221	321	NaN	521	0.537465127184987	2	1	NaN	4401721.6978691	NaN	4401722.681238	4401723.19779467
96	19	0	0	90	36.1581920903955	36.241610738255	7	0.233356423936784	2	3	4	NaN	1	5	0.127937622744553	1	1	NaN	80	2	17	1	121	221	321	NaN	521	0.767140227369964	1	1	NaN	4401724.5480322	NaN	4401725.5315292	4401726.04808187
96	19	0	0	90	36.1581920903955	36.241610738255	20	0.666732639819384	2	5	5	NaN	1	3	0.127937622744553	1	1	NaN	81	2	18	1	121	221	321	NaN	521	0.739664874970913	1	1	NaN	4401727.6317706	NaN	4401728.615164	4401729.13171182
96	19	0	0	90	36.1581920903955	36.241610738255	9	0.300029687918723	2	10	6	NaN	2	3	0.127937622744553	1	1	NaN	82	2	19	1	121	221	321	NaN	521	0.553318127058446	2	1	NaN	4401730.6819438	NaN	4401731.6654674	4401732.18202077
96	19	0	0	90	36.1581920903955	36.241610738255	16	0.533386111855507	2	8	4	NaN	2	3	0.127937622744553	1	1	NaN	83	2	20	1	121	221	321	NaN	521	0.550383727066219	2	1	NaN	4401733.5490307	NaN	4401734.5324135	4401735.04896587
96	19	0	0	90	36.1581920903955	36.241610738255	6	0.200019791945815	2	11	1	NaN	2	3	0.127937622744553	1	1	NaN	84	2	21	1	121	221	321	NaN	521	0.0103945275768638	2	1	NaN	4401736.415964	NaN	4401737.3993592	4401737.91591597
96	19	0	0	90	36.1581920903955	36.241610738255	24	0.80007916778326	2	2	6	NaN	1	4	0.127937622744553	1	1	NaN	85	2	22	1	121	221	321	NaN	521	2.27413647528738	1	1	NaN	4401738.8495674	NaN	4401739.832916	4401740.34948002
96	19	0	0	90	36.1581920903955	36.241610738255	16	0.533386111855507	2	9	4	NaN	2	5	0.127937622744553	1	1	NaN	86	2	23	1	121	221	321	NaN	521	1.93045887444168	2	1	NaN	4401743.433335	NaN	4401744.4167081	4401744.93326543
96	19	0	0	90	36.1581920903955	36.241610738255	16	0.533386111855507	2	2	5	NaN	1	4	0.127937622744553	1	1	NaN	87	2	24	1	121	221	321	NaN	521	0.648277027532458	1	1	NaN	4401747.6669442	NaN	4401748.6504589	4401749.16702067
96	19	0	0	90	36.1581920903955	36.241610738255	15	0.500049479864538	2	2	1	NaN	1	5	0.127937622744553	1	1	NaN	88	2	25	1	121	221	321	NaN	521	1.11324198823422	1	1	NaN	4401750.6340424	NaN	4401751.6174265	4401752.13397241
96	19	0	0	90	36.1581920903955	36.241610738255	21	0.700069271810353	2	11	3	NaN	2	4	0.127937622744553	1	1	NaN	89	2	26	1	121	221	321	NaN	521	1.52781129162759	2	1	NaN	4401754.0676917	NaN	4401755.0510904	4401755.56765691
96	19	0	0	90	36.1581920903955	36.241610738255	11	0.366702951900661	2	10	4	NaN	2	5	0.127937622744553	1	1	NaN	90	2	27	1	121	221	321	NaN	521	1.00532412715256	2	1	NaN	4401757.9179942	NaN	4401758.9014664	4401759.41803147
96	19	0	0	90	36.1581920903955	36.241610738255	18	0.600059375837445	2	10	6	NaN	2	3	0.127937622744553	1	1	NaN	91	2	28	1	121	221	321	NaN	521	1.49650323949754	2	1	NaN	4401761.2350518	NaN	4401762.2184638	4401762.73501916
96	19	0	0	90	36.1581920903955	36.241610738255	12	0.40003958389163	2	5	5	NaN	1	4	0.127937622744553	1	1	NaN	92	2	29	1	121	221	321	NaN	521	0.495612327940762	1	1	NaN	4401765.052132	NaN	4401766.0355106	4401766.55206327
96	19	0	0	90	36.1581920903955	36.241610738255	20	0.666732639819384	2	2	4	NaN	1	3	0.127937622744553	1	1	NaN	93	2	30	1	121	221	321	NaN	521	0.806743923574686	1	1	NaN	4401767.8690489	NaN	4401768.852456	4401769.36899808
96	19	0	0	90	36.1581920903955	36.241610738255	14	0.466712847873569	2	5	6	NaN	1	3	0.127937622744553	1	1	NaN	94	2	31	1	121	221	321	NaN	521	1.28176072705537	1	1	NaN	4401770.986036	NaN	4401771.9694327	4401772.48598047
96	19	0	0	90	36.1581920903955	36.241610738255	14	0.466712847873569	2	1	4	NaN	1	4	0.127937622744553	1	1	NaN	95	2	32	1	121	221	321	NaN	521	0.433261579833925	1	1	NaN	4401774.5863861	NaN	4401775.5697731	4401776.08633742
96	19	0	0	90	36.1581920903955	36.241610738255	0	0	1	4	1	NaN	1	3	0.127937622744553	1	1	NaN	96	2	33	1	111	211	311	NaN	511	1.2034733267501	1	1	NaN	4401777.319916	NaN	4401778.3033828	4401778.81993597
96	19	0	0	90	36.1581920903955	36.241610738255	10	0.333366319909692	2	10	1	NaN	2	3	0.127937622744553	1	1	NaN	97	2	34	1	121	221	321	NaN	521	0.718549175187945	2	1	NaN	4401780.8369865	NaN	4401781.8203855	4401782.33694583
96	19	0	0	90	36.1581920903955	36.241610738255	20	0.666732639819384	2	12	4	NaN	2	5	0.127937622744553	1	1	NaN	98	2	35	1	121	221	321	NaN	521	1.51723792776465	2	1	NaN	4401783.8706197	NaN	4401784.8540229	4401785.37057657
96	19	0	0	90	36.1581920903955	36.241610738255	14	0.466712847873569	2	1	6	NaN	1	5	0.127937622744553	1	1	NaN	99	2	36	1	121	221	321	NaN	521	0.403078274801373	1	1	NaN	4401787.7043311	NaN	4401788.6877244	4401789.20429293
96	19	0	0	90	36.1581920903955	36.241610738255	9	0.300029687918723	2	9	4	NaN	2	4	0.127937622744553	1	1	NaN	100	2	37	1	121	221	321	NaN	521	0.574559926986694	1	0	NaN	4401790.4212725	NaN	4401791.404672	4401791.92122487
96	19	0	0	90	36.1581920903955	36.241610738255	23	0.766742535792291	2	12	4	NaN	2	3	0.127937622744553	1	1	NaN	101	2	38	1	121	221	321	NaN	521	0.610655727796257	1	0	NaN	4401793.3049262	NaN	4401794.2882766	4401794.80484347
96	19	0	0	90	36.1581920903955	36.241610738255	22	0.733405903801322	2	11	2	NaN	2	3	0.127937622744553	1	1	NaN	102	2	39	1	121	221	321	NaN	521	0.693242675624788	2	1	NaN	4401796.2385163	NaN	4401797.2219122	4401797.73845682
96	19	0	0	90	36.1581920903955	36.241610738255	10	0.333366319909692	2	8	6	NaN	2	5	0.127937622744553	1	1	NaN	103	2	40	1	121	221	321	NaN	521	0.476746527478099	2	1	NaN	4401799.2387981	NaN	4401800.2222056	4401800.73876087
96	19	0	0	90	36.1581920903955	36.241610738255	21	0.700069271810353	2	6	4	NaN	1	3	0.127937622744553	1	1	NaN	104	2	41	1	121	221	321	NaN	521	0.517028074711561	1	1	NaN	4401802.0224335	NaN	4401803.0058064	4401803.52237203
96	19	0	0	90	36.1581920903955	36.241610738255	19	0.633396007828414	2	5	1	NaN	1	3	0.127937622744553	1	1	NaN	105	2	42	1	121	221	321	NaN	521	0.507435475476086	1	1	NaN	4401804.8560069	NaN	4401805.8394599	4401806.35596592
96	19	0	0	90	36.1581920903955	36.241610738255	8	0.266693055927753	2	9	2	NaN	2	5	0.127937622744553	1	1	NaN	106	2	43	1	121	221	321	NaN	521	0.874711127951741	1	0	NaN	4401807.6729652	NaN	4401808.6563643	4401809.17291367
96	19	0	0	90	36.1581920903955	36.241610738255	17	0.566722743846476	2	1	5	NaN	1	4	0.127937622744553	1	1	NaN	107	2	44	1	121	221	321	NaN	521	0.630558275617659	1	1	NaN	4401810.9731694	NaN	4401811.9567233	4401812.47324102
96	19	0	0	90	36.1581920903955	36.241610738255	25	0.83341579977423	2	4	3	NaN	1	5	0.127937622744553	1	1	NaN	108	2	45	1	121	221	321	NaN	521	1.15195052698255	1	1	NaN	4401813.9235775	NaN	4401814.9069807	4401815.42353857
96	19	0	0	90	36.1581920903955	36.241610738255	18	0.600059375837445	2	11	5	NaN	2	3	0.127937622744553	1	1	NaN	109	2	46	1	121	221	321	NaN	521	0.588807774707675	2	1	NaN	4401817.3905744	NaN	4401818.3739846	4401818.89054172
96	19	0	0	90	36.1581920903955	36.241610738255	12	0.40003958389163	2	5	2	NaN	1	4	0.127937622744553	1	1	NaN	110	2	47	1	121	221	321	NaN	521	0.464514726772904	1	1	NaN	4401820.2908748	NaN	4401821.2743022	4401821.79082767
96	19	0	0	90	36.1581920903955	36.241610738255	18	0.600059375837445	2	3	1	NaN	1	4	0.127937622744553	1	1	NaN	111	2	48	1	121	221	321	NaN	521	0.336944127455354	1	1	NaN	4401823.0744709	NaN	4401824.057875	4401824.57443697
96	19	0	0	90	36.1581920903955	36.241610738255	13	0.433376215882599	2	1	4	NaN	1	5	0.127937622744553	1	1	NaN	112	2	49	1	121	221	321	NaN	521	0.614837626926601	1	1	NaN	4401825.7247461	NaN	4401826.7081332	4401827.22469787
96	19	0	0	90	36.1581920903955	36.241610738255	6	0.200019791945815	2	9	5	NaN	2	4	0.127937622744553	1	1	NaN	113	2	50	1	121	221	321	NaN	521	0.577101127244532	2	1	NaN	4401828.6583577	NaN	4401829.641762	4401830.15831757
96	19	0	0	90	36.1581920903955	36.241610738255	21	0.700069271810353	2	11	2	NaN	2	4	0.127937622744553	1	1	NaN	114	2	51	1	121	221	321	NaN	521	0.532472643069923	2	1	NaN	4401831.5753317	NaN	4401832.5587117	4401833.07526876
96	19	0	0	90	36.1581920903955	36.241610738255	14	0.466712847873569	2	3	6	NaN	1	3	0.127937622744553	1	1	NaN	115	2	52	1	121	221	321	NaN	521	0.353934827260673	1	1	NaN	4401834.4256276	NaN	4401835.4089736	4401835.92555197
96	19	0	0	90	36.1581920903955	36.241610738255	24	0.80007916778326	2	3	4	NaN	1	4	0.127937622744553	1	1	NaN	116	2	53	1	121	221	321	NaN	521	0.494962926954031	1	1	NaN	4401837.092523	NaN	4401838.0759172	4401838.59247687
96	19	0	0	90	36.1581920903955	36.241610738255	9	0.300029687918723	2	6	5	NaN	1	3	0.127937622744553	1	1	NaN	117	2	54	1	121	221	321	NaN	521	0.855029075406492	1	1	NaN	4401839.8927872	NaN	4401840.8761951	4401841.39274792
96	19	0	0	90	36.1581920903955	36.241610738255	11	0.366702951900661	2	1	4	NaN	1	5	0.127937622744553	1	1	NaN	118	2	55	1	121	221	321	NaN	521	0.527679027058184	1	1	NaN	4401843.0598163	NaN	4401844.0431805	4401844.55973527
96	19	0	0	90	36.1581920903955	36.241610738255	0	0	1	9	2	NaN	2	4	0.127937622744553	1	1	NaN	119	2	56	1	111	211	311	NaN	511	0.430186127312481	1	0	NaN	4401845.893404	NaN	4401846.8767853	4401847.39334717
96	19	0	0	90	36.1581920903955	36.241610738255	25	0.83341579977423	2	11	4	NaN	2	4	0.127937622744553	1	1	NaN	120	2	57	1	121	221	321	NaN	521	0.535885175690055	2	1	NaN	4401848.6437522	NaN	4401849.6270603	4401850.14361142
96	19	0	0	90	36.1581920903955	36.241610738255	24	0.80007916778326	2	6	2	NaN	1	4	0.127937622744553	1	1	NaN	121	2	58	1	121	221	321	NaN	521	0.646095926873386	1	1	NaN	4401851.493905	NaN	4401852.4773828	4401852.99388887
96	19	0	0	90	36.1581920903955	36.241610738255	22	0.733405903801322	2	2	3	NaN	1	4	0.127937622744553	1	1	NaN	122	2	59	1	121	221	321	NaN	521	0.430763026699424	1	1	NaN	4401854.4608965	NaN	4401855.4442959	4401855.96085617
96	19	0	0	90	36.1581920903955	36.241610738255	14	0.466712847873569	2	12	6	NaN	2	3	0.127937622744553	1	1	NaN	123	2	60	1	121	221	321	NaN	521	0.424505075439811	2	1	NaN	4401857.2111861	NaN	4401858.1945834	4401858.71112342
96	19	0	0	90	36.1581920903955	36.241610738255	11	0.366702951900661	2	2	4	NaN	1	4	0.127937622744553	1	1	NaN	124	2	61	1	121	221	321	NaN	521	0.354763227514923	1	1	NaN	4401859.9448038	NaN	4401860.9281743	4401861.44472567
96	19	0	0	90	36.1581920903955	36.241610738255	23	0.766742535792291	2	9	6	NaN	2	4	0.127937622744553	1	1	NaN	125	2	62	1	121	221	321	NaN	521	0.464165827259421	2	1	NaN	4401862.6116905	NaN	4401863.5951267	4401864.11165607
96	19	0	0	90	36.1581920903955	36.241610738255	16	0.533386111855507	2	8	1	NaN	2	4	0.127937622744553	1	1	NaN	126	2	63	1	121	221	321	NaN	521	0.568242279812694	2	1	NaN	4401865.3953242	NaN	4401866.3787065	4401866.89525922
96	19	0	0	90	36.1581920903955	36.241610738255	6	0.200019791945815	2	8	3	NaN	2	4	0.127937622744553	1	1	NaN	127	3	1	1	121	221	321	NaN	521	0.602271275594831	2	1	NaN	4401892.8813418	NaN	4401893.8647425	4401894.38128672
96	19	0	0	90	36.1581920903955	36.241610738255	6	0.200019791945815	2	8	6	NaN	2	3	0.127937622744553	1	1	NaN	128	3	2	1	121	221	321	NaN	521	0.525378227233887	2	1	NaN	4401895.7982636	NaN	4401896.7816982	4401897.29825227
96	19	0	0	90	36.1581920903955	36.241610738255	18	0.600059375837445	2	4	2	NaN	1	3	0.127937622744553	1	1	NaN	129	3	3	1	121	221	321	NaN	521	0.363224979490042	1	1	NaN	4401898.8485891	NaN	4401899.8319909	4401900.34855272
96	19	0	0	90	36.1581920903955	36.241610738255	7	0.233356423936784	2	5	3	NaN	1	3	0.127937622744553	1	1	NaN	130	3	4	1	121	221	321	NaN	521	0.407793275080621	1	1	NaN	4401901.5322014	NaN	4401902.5155901	4401903.03213612
96	19	0	0	90	36.1581920903955	36.241610738255	11	0.366702951900661	2	9	1	NaN	2	5	0.127937622744553	1	1	NaN	131	3	5	1	121	221	321	NaN	521	0.762811375781894	1	0	NaN	4401904.2491268	NaN	4401905.2325277	4401905.74906992
96	19	0	0	90	36.1581920903955	36.241610738255	9	0.300029687918723	2	4	3	NaN	1	5	0.127937622744553	1	1	NaN	132	3	6	1	121	221	321	NaN	521	0.335893618874252	1	1	NaN	4401907.3161053	NaN	4401908.2995073	4401908.81603688
96	19	0	0	90	36.1581920903955	36.241610738255	23	0.766742535792291	2	6	2	NaN	1	4	0.127937622744553	1	1	NaN	133	3	7	1	121	221	321	NaN	521	0.525676563382149	1	1	NaN	4401909.9663874	NaN	4401910.9497468	4401911.46630054
96	19	0	0	90	36.1581920903955	36.241610738255	6	0.200019791945815	2	10	1	NaN	2	4	0.127937622744553	1	1	NaN	134	3	8	1	121	221	321	NaN	521	0.388210795819759	2	1	NaN	4401912.7999532	NaN	4401913.7833665	4401914.2999156
96	19	0	0	90	36.1581920903955	36.241610738255	22	0.733405903801322	2	8	2	NaN	2	3	0.127937622744553	1	1	NaN	135	3	9	1	121	221	321	NaN	521	0.838399423286319	2	1	NaN	4401919.9173047	NaN	4401920.900729	4401921.41728618
96	19	0	0	90	36.1581920903955	36.241610738255	24	0.80007916778326	2	1	3	NaN	1	5	0.127937622744553	1	1	NaN	136	3	10	1	121	221	321	NaN	521	0.536033526994288	1	1	NaN	4401923.067636	NaN	4401924.0510358	4401924.56759727
96	19	0	0	90	36.1581920903955	36.241610738255	20	0.666732639819384	2	5	6	NaN	1	4	0.127937622744553	1	1	NaN	137	3	11	1	121	221	321	NaN	521	1.62162677478045	1	1	NaN	4401925.917933	NaN	4401926.9013308	4401927.41787222
96	19	0	0	90	36.1581920903955	36.241610738255	13	0.433376215882599	2	1	3	NaN	1	4	0.127937622744553	1	1	NaN	138	3	12	1	121	221	321	NaN	521	0.438599991612136	1	1	NaN	4401929.9016254	NaN	4401930.885077	4401931.40160061
96	19	0	0	90	36.1581920903955	36.241610738255	10	0.333366319909692	2	4	3	NaN	1	5	0.127937622744553	1	1	NaN	139	3	13	1	121	221	321	NaN	521	0.53567202296108	1	1	NaN	4401932.6519307	NaN	4401933.6353379	4401934.15186048
96	19	0	0	90	36.1581920903955	36.241610738255	10	0.333366319909692	2	2	3	NaN	1	5	0.127937622744553	1	1	NaN	140	3	14	1	121	221	321	NaN	521	0.629447027109563	1	1	NaN	4401935.5021534	NaN	4401936.4856269	4401937.00215057
96	19	0	0	90	36.1581920903955	36.241610738255	25	0.83341579977423	2	7	6	NaN	2	3	0.127937622744553	1	1	NaN	141	3	15	1	121	221	321	NaN	521	1.9995060749352	2	1	NaN	4401938.4524906	NaN	4401939.435889	4401939.95244012
96	19	0	0	90	36.1581920903955	36.241610738255	13	0.433376215882599	2	9	5	NaN	2	5	0.127937622744553	1	1	NaN	142	3	16	1	121	221	321	NaN	521	0.658236875198781	2	1	NaN	4401942.7694951	NaN	4401943.7529629	4401944.26952402
96	19	0	0	90	36.1581920903955	36.241610738255	16	0.533386111855507	2	5	1	NaN	1	4	0.127937622744553	1	1	NaN	143	3	17	1	121	221	321	NaN	521	6.15503252670169	1	1	NaN	4401946.3366278	NaN	4401947.3199986	4401947.83655157
96	19	0	0	90	36.1581920903955	36.241610738255	15	0.500049479864538	2	6	5	NaN	1	3	0.127937622744553	1	1	NaN	144	3	18	1	121	221	321	NaN	521	0.79997287504375	2	0	NaN	4401954.8040528	NaN	4401955.7874937	4401956.30403753
96	19	0	0	90	36.1581920903955	36.241610738255	22	0.733405903801322	2	9	6	NaN	2	3	0.127937622744553	1	1	NaN	145	3	19	1	121	221	321	NaN	521	1.42736962717026	2	1	NaN	4401957.9044119	NaN	4401958.8878013	4401959.40435527
96	19	0	0	90	36.1581920903955	36.241610738255	24	0.80007916778326	2	12	2	NaN	2	4	0.127937622744553	1	1	NaN	146	3	20	1	121	221	321	NaN	521	2.25366647541523	1	0	NaN	4401961.6380961	NaN	4401962.6214882	4401963.13805642
96	19	0	0	90	36.1581920903955	36.241610738255	23	0.766742535792291	2	10	5	NaN	2	4	0.127937622744553	1	1	NaN	147	3	21	1	121	221	321	NaN	521	0.702518475241959	1	0	NaN	4401966.2051544	NaN	4401967.1886162	4401967.70516432
96	19	0	0	90	36.1581920903955	36.241610738255	16	0.533386111855507	2	4	5	NaN	1	5	0.127937622744553	1	1	NaN	148	3	22	1	121	221	321	NaN	521	2.25341327954084	1	1	NaN	4401969.2220377	NaN	4401970.2055749	4401970.72213612
96	19	0	0	90	36.1581920903955	36.241610738255	20	0.666732639819384	2	7	3	NaN	2	4	0.127937622744553	1	1	NaN	149	3	23	1	121	221	321	NaN	521	0.750501374714077	2	1	NaN	4401973.7893072	NaN	4401974.7726978	4401975.28924592
96	19	0	0	90	36.1581920903955	36.241610738255	12	0.40003958389163	2	8	6	NaN	2	3	0.127937622744553	1	1	NaN	150	3	24	1	121	221	321	NaN	521	0.611365174874663	2	1	NaN	4401976.8562619	NaN	4401977.8396551	4401978.35620982
96	19	0	0	90	36.1581920903955	36.241610738255	22	0.733405903801322	2	4	5	NaN	1	3	0.127937622744553	1	1	NaN	151	3	25	1	121	221	321	NaN	521	0.838435826823115	1	1	NaN	4401979.7732267	NaN	4401980.756618	4401981.27317177
96	19	0	0	90	36.1581920903955	36.241610738255	11	0.366702951900661	2	7	4	NaN	2	4	0.127937622744553	1	1	NaN	152	3	26	1	121	221	321	NaN	521	0.728509979322553	2	1	NaN	4401982.9235127	NaN	4401983.9069084	4401984.42348412
96	19	0	0	90	36.1581920903955	36.241610738255	18	0.600059375837445	2	12	5	NaN	2	5	0.127937622744553	1	1	NaN	153	3	27	1	121	221	321	NaN	521	1.11863412708044	1	0	NaN	4401985.9571745	NaN	4401986.9405574	4401987.45710577
96	19	0	0	90	36.1581920903955	36.241610738255	21	0.700069271810353	2	1	2	NaN	1	4	0.127937622744553	1	1	NaN	154	3	28	1	121	221	321	NaN	521	0.493238626979291	1	1	NaN	4401989.3907081	NaN	4401990.3742244	4401990.89077867
96	19	0	0	90	36.1581920903955	36.241610738255	25	0.83341579977423	2	10	4	NaN	2	4	0.127937622744553	1	1	NaN	155	3	29	1	121	221	321	NaN	521	0.53274192661047	2	1	NaN	4401992.1911142	NaN	4401993.1745031	4401993.69105917
96	19	0	0	90	36.1581920903955	36.241610738255	9	0.300029687918723	2	2	6	NaN	1	4	0.127937622744553	1	1	NaN	156	3	30	1	121	221	321	NaN	521	1.09850582666695	1	1	NaN	4401995.0413935	NaN	4401996.0247745	4401996.54133117
96	19	0	0	90	36.1581920903955	36.241610738255	18	0.600059375837445	2	7	1	NaN	2	5	0.127937622744553	1	1	NaN	157	3	31	1	121	221	321	NaN	521	1.20945142675191	2	1	NaN	4401998.4583826	NaN	4401999.4417791	4401999.95834247
96	19	0	0	90	36.1581920903955	36.241610738255	15	0.500049479864538	2	8	2	NaN	2	4	0.127937622744553	1	1	NaN	158	3	32	1	121	221	321	NaN	521	0.620307627134025	2	1	NaN	4402001.9752997	NaN	4402002.9587998	4402003.47535217
96	19	0	0	90	36.1581920903955	36.241610738255	24	0.80007916778326	2	8	6	NaN	2	5	0.127937622744553	1	1	NaN	159	3	33	1	121	221	321	NaN	521	1.31868787482381	2	1	NaN	4402004.9090175	NaN	4402005.8924261	4402006.40896292
96	19	0	0	90	36.1581920903955	36.241610738255	24	0.80007916778326	2	2	5	NaN	1	5	0.127937622744553	1	1	NaN	160	3	34	1	121	221	321	NaN	521	0.612894627265632	1	1	NaN	4402008.5426076	NaN	4402009.5261061	4402010.04266527
96	19	0	0	90	36.1581920903955	36.241610738255	18	0.600059375837445	2	4	6	NaN	1	3	0.127937622744553	1	1	NaN	161	3	35	1	121	221	321	NaN	521	0.631566375494003	1	1	NaN	4402011.4763387	NaN	4402012.4597311	4402012.97627642
96	19	0	0	90	36.1581920903955	36.241610738255	12	0.40003958389163	2	12	1	NaN	2	5	0.127937622744553	1	1	NaN	162	3	36	1	121	221	321	NaN	521	0.585304075852036	2	1	NaN	4402014.4266223	NaN	4402015.4100326	4402015.92657452
96	19	0	0	90	36.1581920903955	36.241610738255	15	0.500049479864538	2	9	1	NaN	2	5	0.127937622744553	1	1	NaN	163	3	37	1	121	221	321	NaN	521	1.33287137467414	2	1	NaN	4402017.3269052	NaN	4402018.3103027	4402018.82685023
96	19	0	0	90	36.1581920903955	36.241610738255	24	0.80007916778326	2	5	5	NaN	1	3	0.127937622744553	1	1	NaN	164	3	38	1	121	221	321	NaN	521	0.714847226627171	1	1	NaN	4402020.977194	NaN	4402021.9606648	4402022.47721397
96	19	0	0	90	36.1581920903955	36.241610738255	7	0.233356423936784	2	1	5	NaN	1	3	0.127937622744553	1	1	NaN	165	3	39	1	121	221	321	NaN	521	1.08120937552303	1	1	NaN	4402024.0107587	NaN	4402024.9942993	4402025.51086112
96	19	0	0	90	36.1581920903955	36.241610738255	14	0.466712847873569	2	8	1	NaN	2	3	0.127937622744553	1	1	NaN	166	3	40	1	121	221	321	NaN	521	0.79267237521708	2	1	NaN	4402027.4112236	NaN	4402028.3946342	4402028.91118162
96	19	0	0	90	36.1581920903955	36.241610738255	21	0.700069271810353	2	7	4	NaN	2	4	0.127937622744553	1	1	NaN	167	3	41	1	121	221	321	NaN	521	1.84396707545966	2	1	NaN	4402030.5282082	NaN	4402031.5116054	4402032.02815162
96	19	0	0	90	36.1581920903955	36.241610738255	17	0.566722743846476	2	6	2	NaN	1	3	0.127937622744553	1	1	NaN	168	3	42	1	121	221	321	NaN	521	0.517196027562022	1	1	NaN	4402034.6786042	NaN	4402035.6620268	4402036.17856517
96	19	0	0	90	36.1581920903955	36.241610738255	23	0.766742535792291	2	7	1	NaN	2	4	0.127937622744553	1	1	NaN	169	3	43	1	121	221	321	NaN	521	3.18777872808278	2	1	NaN	4402037.5122389	NaN	4402038.4956258	4402039.01217577
96	19	0	0	90	36.1581920903955	36.241610738255	12	0.40003958389163	2	1	2	NaN	1	4	0.127937622744553	1	1	NaN	170	3	44	1	121	221	321	NaN	521	1.04736187960953	1	1	NaN	4402043.0126424	NaN	4402043.9961624	4402044.51271712
96	19	0	0	90	36.1581920903955	36.241610738255	24	0.80007916778326	2	5	4	NaN	1	4	0.127937622744553	1	1	NaN	171	3	45	1	121	221	321	NaN	521	0.61610777489841	1	1	NaN	4402046.3797695	NaN	4402047.363148	4402047.87971222
96	19	0	0	90	36.1581920903955	36.241610738255	21	0.700069271810353	2	12	5	NaN	2	4	0.127937622744553	1	1	NaN	172	3	46	1	121	221	321	NaN	521	3.69884482678026	2	1	NaN	4402049.3132611	NaN	4402050.2967015	4402050.81333697
96	19	0	0	90	36.1581920903955	36.241610738255	6	0.200019791945815	2	4	5	NaN	1	5	0.127937622744553	1	1	NaN	173	3	47	1	121	221	321	NaN	521	1.7933007273823	1	1	NaN	4402055.3306492	NaN	4402056.3140403	4402056.83059607
96	19	0	0	90	36.1581920903955	36.241610738255	19	0.633396007828414	2	11	4	NaN	2	3	0.127937622744553	1	1	NaN	174	3	48	1	121	221	321	NaN	521	0.660668827593327	2	1	NaN	4402059.4310504	NaN	4402060.414461	4402060.93099017
96	19	0	0	90	36.1581920903955	36.241610738255	21	0.700069271810353	2	8	3	NaN	2	4	0.127937622744553	1	1	NaN	175	3	49	1	121	221	321	NaN	521	1.82238042727113	2	1	NaN	4402062.980987	NaN	4402063.9647954	4402064.48134587
96	19	0	0	90	36.1581920903955	36.241610738255	21	0.700069271810353	2	1	2	NaN	1	4	0.127937622744553	1	1	NaN	176	3	50	1	121	221	321	NaN	521	1.49671622272581	1	1	NaN	4402067.1151504	NaN	4402068.0985329	4402068.61507748
96	19	0	0	90	36.1581920903955	36.241610738255	18	0.600059375837445	2	5	2	NaN	1	4	0.127937622744553	1	1	NaN	177	3	51	1	121	221	321	NaN	521	0.831860227510333	1	1	NaN	4402070.9321774	NaN	4402071.9155741	4402072.43212947
96	19	0	0	90	36.1581920903955	36.241610738255	13	0.433376215882599	2	3	5	NaN	1	5	0.127937622744553	1	1	NaN	178	3	52	1	121	221	321	NaN	521	0.79355432651937	1	1	NaN	4402074.0824771	NaN	4402075.0658733	4402075.58243167
96	19	0	0	90	36.1581920903955	36.241610738255	22	0.733405903801322	2	1	2	NaN	1	4	0.127937622744553	1	1	NaN	179	3	53	1	121	221	321	NaN	521	1.07615157496184	1	1	NaN	4402077.1994604	NaN	4402078.1828618	4402078.69940692
96	19	0	0	90	36.1581920903955	36.241610738255	0	0	1	2	2	NaN	1	4	0.127937622744553	1	1	NaN	180	3	54	1	111	211	311	NaN	511	0.620759191922843	1	1	NaN	4402080.5831284	NaN	4402081.5665209	4402082.08307581
96	19	0	0	90	36.1581920903955	36.241610738255	8	0.266693055927753	2	10	2	NaN	2	3	0.127937622744553	1	1	NaN	181	3	55	1	121	221	321	NaN	521	0.310978843830526	2	1	NaN	4402083.5167531	NaN	4402084.5001475	4402085.01670816
96	19	0	0	90	36.1581920903955	36.241610738255	25	0.83341579977423	2	4	5	NaN	1	3	0.127937622744553	1	1	NaN	182	3	56	1	121	221	321	NaN	521	0.590586427599192	1	1	NaN	4402086.133659	NaN	4402087.1170804	4402087.63361887
96	19	0	0	90	36.1581920903955	36.241610738255	9	0.300029687918723	2	12	5	NaN	2	4	0.127937622744553	1	1	NaN	183	3	57	1	121	221	321	NaN	521	0.554153827950358	2	1	NaN	4402089.0338621	NaN	4402090.0173441	4402090.53391197
96	19	0	0	90	36.1581920903955	36.241610738255	6	0.200019791945815	2	10	6	NaN	2	5	0.127937622744553	1	1	NaN	184	3	58	1	121	221	321	NaN	521	0.639037474989891	2	1	NaN	4402091.9009078	NaN	4402092.8842999	4402093.40088482
96	19	0	0	90	36.1581920903955	36.241610738255	11	0.366702951900661	2	3	6	NaN	1	4	0.127937622744553	1	1	NaN	185	3	59	1	121	221	321	NaN	521	0.537038375623524	1	1	NaN	4402094.8511887	NaN	4402095.834552	4402096.35114902
96	19	0	0	90	36.1581920903955	36.241610738255	13	0.433376215882599	2	12	2	NaN	2	4	0.127937622744553	1	1	NaN	186	3	60	1	121	221	321	NaN	521	0.558511227369308	2	1	NaN	4402097.7014833	NaN	4402098.6848604	4402099.20141957
96	19	0	0	90	36.1581920903955	36.241610738255	15	0.500049479864538	2	8	4	NaN	2	4	0.127937622744553	1	1	NaN	187	3	61	1	121	221	321	NaN	521	1.05156977567822	2	1	NaN	4402100.5684655	NaN	4402101.5518173	4402102.06836522
96	19	0	0	90	36.1581920903955	36.241610738255	22	0.733405903801322	2	6	5	NaN	1	3	0.127937622744553	1	1	NaN	188	3	62	1	121	221	321	NaN	521	0.78084247931838	2	0	NaN	4402103.9354226	NaN	4402104.9188093	4402105.43537822
96	19	0	0	90	36.1581920903955	36.241610738255	15	0.500049479864538	2	5	1	NaN	1	4	0.127937622744553	1	1	NaN	189	3	63	1	121	221	321	NaN	521	0.40857357531786	1	1	NaN	4402107.0355784	NaN	4402108.0191363	4402108.53567762
96	19	0	0	90	36.1581920903955	36.241610738255	6	0.200019791945815	2	6	4	NaN	1	4	0.127937622744553	1	1	NaN	190	4	1	1	121	221	321	NaN	521	2.11701592709869	1	1	NaN	4402178.7594499	NaN	4402179.7428556	4402180.25939307
96	19	0	0	90	36.1581920903955	36.241610738255	24	0.80007916778326	2	1	3	NaN	1	3	0.127937622744553	1	1	NaN	191	4	2	1	121	221	321	NaN	521	0.76313847489655	1	1	NaN	4402183.1932002	NaN	4402184.176508	4402184.69315853
96	19	0	0	90	36.1581920903955	36.241610738255	19	0.633396007828414	2	8	1	NaN	2	3	0.127937622744553	1	1	NaN	192	4	3	1	121	221	321	NaN	521	0.487554075196385	2	1	NaN	4402186.2768642	NaN	4402187.2602404	4402187.77678883
96	19	0	0	90	36.1581920903955	36.241610738255	19	0.633396007828414	2	10	3	NaN	2	4	0.127937622744553	1	1	NaN	193	4	4	1	121	221	321	NaN	521	0.614865726791322	2	1	NaN	4402189.0771103	NaN	4402190.060517	4402190.57706717
96	19	0	0	90	36.1581920903955	36.241610738255	0	0	1	8	4	NaN	2	4	0.127937622744553	1	1	NaN	194	4	5	1	111	211	311	NaN	511	2.09716817550361	2	1	NaN	4402192.0107461	NaN	4402192.9941385	4402193.51069812
96	19	0	0	90	36.1581920903955	36.241610738255	15	0.500049479864538	2	1	1	NaN	1	4	0.127937622744553	1	1	NaN	195	4	6	1	121	221	321	NaN	521	4.88019202277064	2	0	NaN	4402196.4278332	NaN	4402197.4112457	4402197.92779718
96	19	0	0	90	36.1581920903955	36.241610738255	18	0.600059375837445	2	8	3	NaN	2	3	0.127937622744553	1	1	NaN	196	4	7	1	121	221	321	NaN	521	0.543861326761544	2	1	NaN	4402203.6285601	NaN	4402204.6119509	4402205.12850847
96	19	0	0	90	36.1581920903955	36.241610738255	24	0.80007916778326	2	3	1	NaN	1	4	0.127937622744553	1	1	NaN	197	4	8	1	121	221	321	NaN	521	1.3405243428424	1	1	NaN	4402206.4954963	NaN	4402207.4788937	4402207.99546166
96	19	0	0	90	36.1581920903955	36.241610738255	15	0.500049479864538	2	11	6	NaN	2	5	0.127937622744553	1	1	NaN	198	4	9	1	121	221	321	NaN	521	5.24222852755338	1	0	NaN	4402210.1457878	NaN	4402211.1292606	4402211.64581377
96	19	0	0	90	36.1581920903955	36.241610738255	22	0.733405903801322	2	8	5	NaN	2	3	0.127937622744553	1	1	NaN	199	4	10	1	121	221	321	NaN	521	0.843493575230241	2	1	NaN	4402217.6965943	NaN	4402218.6800092	4402219.19654302
96	19	0	0	90	36.1581920903955	36.241610738255	0	0	1	3	2	NaN	1	4	0.127937622744553	1	1	NaN	200	4	11	1	111	211	311	NaN	511	0.997516543604434	1	1	NaN	4402220.8468036	NaN	4402221.8303052	4402222.34686976
96	19	0	0	90	36.1581920903955	36.241610738255	9	0.300029687918723	2	7	5	NaN	2	5	0.127937622744553	1	1	NaN	201	4	12	1	121	221	321	NaN	521	9.95271597523242	1	0	NaN	4402224.1639219	NaN	4402225.1473047	4402225.66385342
96	19	0	0	90	36.1581920903955	36.241610738255	19	0.633396007828414	2	7	1	NaN	2	3	0.127937622744553	1	1	NaN	202	4	13	1	121	221	321	NaN	521	0.604367827065289	2	1	NaN	4402236.4317834	NaN	4402237.4151677	4402237.93173027
96	19	0	0	90	36.1581920903955	36.241610738255	15	0.500049479864538	2	5	1	NaN	1	4	0.127937622744553	1	1	NaN	203	4	14	1	121	221	321	NaN	521	0.527413375675678	1	1	NaN	4402239.3487281	NaN	4402240.332131	4402240.84867772
96	19	0	0	90	36.1581920903955	36.241610738255	21	0.700069271810353	2	5	6	NaN	1	5	0.127937622744553	1	1	NaN	204	4	15	1	121	221	321	NaN	521	0.98181632719934	1	1	NaN	4402242.1822215	NaN	4402243.1657394	4402243.68229647
96	19	0	0	90	36.1581920903955	36.241610738255	24	0.80007916778326	2	7	3	NaN	2	3	0.127937622744553	1	1	NaN	205	4	16	1	121	221	321	NaN	521	0.561341575346887	2	1	NaN	4402245.4826748	NaN	4402246.4660822	4402246.98261523
96	19	0	0	90	36.1581920903955	36.241610738255	0	0	1	8	1	NaN	2	3	0.127937622744553	1	1	NaN	206	4	17	1	111	211	311	NaN	511	2.24675467517227	2	1	NaN	4402248.3496057	NaN	4402249.3330046	4402249.84955953
96	19	0	0	90	36.1581920903955	36.241610738255	6	0.200019791945815	2	5	5	NaN	1	4	0.127937622744553	1	1	NaN	207	4	18	1	121	221	321	NaN	521	5.93575772736222	1	1	NaN	4402252.91672	NaN	4402253.9001282	4402254.41668327
96	19	0	0	90	36.1581920903955	36.241610738255	0	0	1	7	5	NaN	2	4	0.127937622744553	1	1	NaN	208	4	19	1	111	211	311	NaN	511	0.35449592769146	2	1	NaN	4402261.4174375	NaN	4402262.4009613	4402262.91751407
96	19	0	0	90	36.1581920903955	36.241610738255	20	0.666732639819384	2	3	1	NaN	1	4	0.127937622744553	1	1	NaN	209	4	20	1	121	221	321	NaN	521	0.191566227003932	1	1	NaN	4402264.0844868	NaN	4402265.0678704	4402265.58444457
96	19	0	0	90	36.1581920903955	36.241610738255	12	0.40003958389163	2	10	1	NaN	2	3	0.127937622744553	1	1	NaN	210	4	21	1	121	221	321	NaN	521	0.667392327450216	2	1	NaN	4402266.5846946	NaN	4402267.56813	4402268.08469087
96	19	0	0	90	36.1581920903955	36.241610738255	23	0.766742535792291	2	10	2	NaN	2	4	0.127937622744553	1	1	NaN	211	4	22	1	121	221	321	NaN	521	1.49980392772704	2	1	NaN	4402269.5683686	NaN	4402270.5517429	4402271.06831087
96	19	0	0	90	36.1581920903955	36.241610738255	19	0.633396007828414	2	12	3	NaN	2	5	0.127937622744553	1	1	NaN	212	4	23	1	121	221	321	NaN	521	0.490738526917994	2	1	NaN	4402273.3854068	NaN	4402274.3688377	4402274.88536017
96	19	0	0	90	36.1581920903955	36.241610738255	21	0.700069271810353	2	2	1	NaN	1	5	0.127937622744553	1	1	NaN	213	4	24	1	121	221	321	NaN	521	0.922582727856934	1	1	NaN	4402276.1857704	NaN	4402277.1691212	4402277.68563127
96	19	0	0	90	36.1581920903955	36.241610738255	17	0.566722743846476	2	8	4	NaN	2	4	0.127937622744553	1	1	NaN	214	4	25	1	121	221	321	NaN	521	0.328906127251685	2	1	NaN	4402279.4193285	NaN	4402280.4027316	4402280.91928677
96	19	0	0	90	36.1581920903955	36.241610738255	0	0	1	5	6	NaN	1	5	0.127937622744553	1	1	NaN	215	4	26	1	111	211	311	NaN	511	0.230904875323176	1	1	NaN	4402282.0695924	NaN	4402283.0529824	4402283.56954942
96	19	0	0	90	36.1581920903955	36.241610738255	22	0.733405903801322	2	7	2	NaN	2	4	0.127937622744553	1	1	NaN	216	4	27	1	121	221	321	NaN	521	0.392368570901453	2	1	NaN	4402284.6198751	NaN	4402285.6032332	4402286.11978723
96	19	0	0	90	36.1581920903955	36.241610738255	16	0.533386111855507	2	9	2	NaN	2	3	0.127937622744553	1	1	NaN	217	4	28	1	121	221	321	NaN	521	1.93249367456883	1	0	NaN	4402287.3201208	NaN	4402288.3035696	4402288.82006073
96	19	0	0	90	36.1581920903955	36.241610738255	10	0.333366319909692	2	11	5	NaN	2	3	0.127937622744553	1	1	NaN	218	4	29	1	121	221	321	NaN	521	0.506038270890713	2	1	NaN	4402291.5705245	NaN	4402292.5539255	4402293.07046833
96	19	0	0	90	36.1581920903955	36.241610738255	24	0.80007916778326	2	11	1	NaN	2	3	0.127937622744553	1	1	NaN	219	4	30	1	121	221	321	NaN	521	5.41949657537043	2	1	NaN	4402294.5201495	NaN	4402295.5042056	4402296.02076652
96	19	0	0	90	36.1581920903955	36.241610738255	8	0.266693055927753	2	3	5	NaN	1	3	0.127937622744553	1	1	NaN	220	4	31	1	121	221	321	NaN	521	3.43722882773727	1	1	NaN	4402302.254932	NaN	4402303.2383091	4402303.75486297
96	19	0	0	90	36.1581920903955	36.241610738255	25	0.83341579977423	2	9	3	NaN	2	3	0.127937622744553	1	1	NaN	221	4	32	1	121	221	321	NaN	521	0.358634375035763	2	1	NaN	4402308.0054724	NaN	4402308.9888744	4402309.50542033
96	19	0	0	90	36.1581920903955	36.241610738255	23	0.766742535792291	2	11	3	NaN	2	5	0.127937622744553	1	1	NaN	222	4	33	1	121	221	321	NaN	521	0.723054227419198	2	1	NaN	4402310.6890984	NaN	4402311.6724832	4402312.18902517
96	19	0	0	90	36.1581920903955	36.241610738255	11	0.366702951900661	2	5	4	NaN	1	5	0.127937622744553	1	1	NaN	223	4	34	1	121	221	321	NaN	521	0.353881327435374	1	1	NaN	4402313.7227009	NaN	4402314.7060977	4402315.22266737
96	19	0	0	90	36.1581920903955	36.241610738255	0	0	1	6	4	NaN	1	5	0.127937622744553	1	1	NaN	224	4	35	1	111	211	311	NaN	511	0.374733027070761	1	1	NaN	4402316.3896476	NaN	4402317.3730259	4402317.88958337
96	19	0	0	90	36.1581920903955	36.241610738255	16	0.533386111855507	2	10	3	NaN	2	4	0.127937622744553	1	1	NaN	225	4	36	1	121	221	321	NaN	521	0.371058926917613	2	1	NaN	4402319.0732202	NaN	4402320.0566276	4402320.57318337
96	19	0	0	90	36.1581920903955	36.241610738255	15	0.500049479864538	2	3	2	NaN	1	3	0.127937622744553	1	1	NaN	226	4	37	1	121	221	321	NaN	521	0.343349979259074	1	1	NaN	4402321.7566921	NaN	4402322.7402253	4402323.25677602
96	19	0	0	90	36.1581920903955	36.241610738255	14	0.466712847873569	2	7	6	NaN	2	5	0.127937622744553	1	1	NaN	227	4	38	1	121	221	321	NaN	521	0.908831327222288	2	1	NaN	4402324.4237647	NaN	4402325.4071767	4402325.92370127
96	19	0	0	90	36.1581920903955	36.241610738255	19	0.633396007828414	2	9	6	NaN	2	3	0.127937622744553	1	1	NaN	228	4	39	1	121	221	321	NaN	521	0.30777682736516	2	1	NaN	4402327.6407619	NaN	4402328.624138	4402329.14069077
96	19	0	0	90	36.1581920903955	36.241610738255	18	0.600059375837445	2	6	4	NaN	1	3	0.127937622744553	1	1	NaN	229	4	40	1	121	221	321	NaN	521	0.514474474824965	1	1	NaN	4402330.2576738	NaN	4402331.2410502	4402331.75760673
96	19	0	0	90	36.1581920903955	36.241610738255	7	0.233356423936784	2	11	4	NaN	2	4	0.127937622744553	1	1	NaN	230	4	41	1	121	221	321	NaN	521	0.376931374892592	2	1	NaN	4402333.0912874	NaN	4402334.0746549	4402334.59122992
96	19	0	0	90	36.1581920903955	36.241610738255	23	0.766742535792291	2	12	2	NaN	2	3	0.127937622744553	1	1	NaN	231	4	42	1	121	221	321	NaN	521	0.781602375209332	2	1	NaN	4402335.7747485	NaN	4402336.7582668	4402337.27482382
96	19	0	0	90	36.1581920903955	36.241610738255	9	0.300029687918723	2	6	2	NaN	1	3	0.127937622744553	1	1	NaN	232	4	43	1	121	221	321	NaN	521	0.424950174987316	1	1	NaN	4402338.8751858	NaN	4402339.8585842	4402340.37512622
96	19	0	0	90	36.1581920903955	36.241610738255	22	0.733405903801322	2	2	5	NaN	1	5	0.127937622744553	1	1	NaN	233	4	44	1	121	221	321	NaN	521	0.443741478957236	1	1	NaN	4402341.608829	NaN	4402342.5921521	4402343.10873142
96	19	0	0	90	36.1581920903955	36.241610738255	17	0.566722743846476	2	4	3	NaN	1	5	0.127937622744553	1	1	NaN	234	4	45	1	121	221	321	NaN	521	0.909442027099431	1	1	NaN	4402344.3590414	NaN	4402345.3424478	4402345.85899397
96	19	0	0	90	36.1581920903955	36.241610738255	13	0.433376215882599	2	4	2	NaN	1	5	0.127937622744553	1	1	NaN	235	4	46	1	121	221	321	NaN	521	0.372360895387828	2	0	NaN	4402347.5759007	NaN	4402348.5594109	4402349.0760057
96	19	0	0	90	36.1581920903955	36.241610738255	11	0.366702951900661	2	6	3	NaN	1	4	0.127937622744553	1	1	NaN	236	4	47	1	121	221	321	NaN	521	0.345014127902687	1	1	NaN	4402350.2596258	NaN	4402351.2430272	4402351.75958157
96	19	0	0	90	36.1581920903955	36.241610738255	7	0.233356423936784	2	2	3	NaN	1	5	0.127937622744553	1	1	NaN	237	4	48	1	121	221	321	NaN	521	0.577069423161447	1	1	NaN	4402353.0431172	NaN	4402354.0266425	4402354.54319068
96	19	0	0	90	36.1581920903955	36.241610738255	17	0.566722743846476	2	3	5	NaN	1	5	0.127937622744553	1	1	NaN	238	4	49	1	121	221	321	NaN	521	0.428654475137591	1	1	NaN	4402355.943561	NaN	4402356.9269196	4402357.44346332
96	19	0	0	90	36.1581920903955	36.241610738255	6	0.200019791945815	2	7	5	NaN	2	4	0.127937622744553	1	1	NaN	239	4	50	1	121	221	321	NaN	521	0.855111544020474	2	1	NaN	4402358.6771144	NaN	4402359.6605166	4402360.17707996
96	19	0	0	90	36.1581920903955	36.241610738255	8	0.266693055927753	2	11	1	NaN	2	3	0.127937622744553	1	1	NaN	240	4	51	1	121	221	321	NaN	521	0.392493127845228	2	1	NaN	4402361.844139	NaN	4402362.8274949	4402363.34405237
96	19	0	0	90	36.1581920903955	36.241610738255	21	0.700069271810353	2	9	1	NaN	2	4	0.127937622744553	1	1	NaN	241	4	52	1	121	221	321	NaN	521	0.692099074833095	1	0	NaN	4402364.5443655	NaN	4402365.5277576	4402366.04431642
96	19	0	0	90	36.1581920903955	36.241610738255	7	0.233356423936784	2	4	2	NaN	1	4	0.127937622744553	1	1	NaN	242	4	53	1	121	221	321	NaN	521	1.12325862701982	1	1	NaN	4402367.5613296	NaN	4402368.5447347	4402369.06128437
96	19	0	0	90	36.1581920903955	36.241610738255	16	0.533386111855507	2	7	5	NaN	2	4	0.127937622744553	1	1	NaN	243	4	54	1	121	221	321	NaN	521	0.409346526488662	2	1	NaN	4402370.9949907	NaN	4402371.9783916	4402372.49495347
96	19	0	0	90	36.1581920903955	36.241610738255	24	0.80007916778326	2	12	6	NaN	2	3	0.127937622744553	1	1	NaN	244	4	55	1	121	221	321	NaN	521	0.55635407473892	2	1	NaN	4402373.7119699	NaN	4402374.695335	4402375.21188312
96	19	0	0	90	36.1581920903955	36.241610738255	9	0.300029687918723	2	4	2	NaN	1	3	0.127937622744553	1	1	NaN	245	4	56	1	121	221	321	NaN	521	0.489514222368598	2	0	NaN	4402376.5788054	NaN	4402377.5623121	4402378.07883138
96	19	0	0	90	36.1581920903955	36.241610738255	22	0.733405903801322	2	11	2	NaN	2	4	0.127937622744553	1	1	NaN	246	4	57	1	121	221	321	NaN	521	1.55347682721913	2	1	NaN	4402379.3790277	NaN	4402380.3625569	4402380.87911237
96	19	0	0	90	36.1581920903955	36.241610738255	8	0.266693055927753	2	8	2	NaN	2	5	0.127937622744553	1	1	NaN	247	4	58	1	121	221	321	NaN	521	1.95006232243031	2	1	NaN	4402383.2462082	NaN	4402384.2295991	4402384.74615618
96	19	0	0	90	36.1581920903955	36.241610738255	17	0.566722743846476	2	2	2	NaN	1	3	0.127937622744553	1	1	NaN	248	4	59	1	121	221	321	NaN	521	1.46685882750899	1	1	NaN	4402387.5132998	NaN	4402388.4966903	4402389.01324367
96	19	0	0	90	36.1581920903955	36.241610738255	13	0.433376215882599	2	7	3	NaN	2	4	0.127937622744553	1	1	NaN	249	4	60	1	121	221	321	NaN	521	1.14764882717282	2	1	NaN	4402391.2969865	NaN	4402392.2803695	4402392.79694797
96	19	0	0	90	36.1581920903955	36.241610738255	7	0.233356423936784	2	3	6	NaN	1	4	0.127937622744553	1	1	NaN	250	4	61	1	121	221	321	NaN	521	0.808233527466655	1	1	NaN	4402394.7640097	NaN	4402395.7474071	4402396.26395617
96	19	0	0	90	36.1581920903955	36.241610738255	14	0.466712847873569	2	10	5	NaN	2	5	0.127937622744553	1	1	NaN	251	4	62	1	121	221	321	NaN	521	0.699687975458801	2	1	NaN	4402397.8810217	NaN	4402398.8643687	4402399.38091922
96	19	0	0	90	36.1581920903955	36.241610738255	0	0	1	2	2	NaN	1	4	0.127937622744553	1	1	NaN	252	4	63	1	111	211	311	NaN	511	0.914623375050724	2	0	NaN	4402400.8979317	NaN	4402401.8813425	4402402.39788282
96	19	0	0	90	36.1581920903955	36.241610738255	13	0.433376215882599	2	11	6	NaN	2	3	0.127937622744553	1	1	NaN	253	5	1	1	121	221	321	NaN	521	0.469633675180376	2	1	NaN	4402442.9187407	NaN	4402443.9021255	4402444.41868143
96	19	0	0	90	36.1581920903955	36.241610738255	19	0.633396007828414	2	6	3	NaN	1	4	0.127937622744553	1	1	NaN	254	5	2	1	121	221	321	NaN	521	2.41063302755356	1	1	NaN	4402446.1855967	NaN	4402447.1691132	4402447.68566777
96	19	0	0	90	36.1581920903955	36.241610738255	12	0.40003958389163	2	6	1	NaN	1	3	0.127937622744553	1	1	NaN	255	5	3	1	121	221	321	NaN	521	6.00547572690994	1	1	NaN	4402450.9028539	NaN	4402451.8862447	4402452.40280437
96	19	0	0	90	36.1581920903955	36.241610738255	10	0.333366319909692	2	8	1	NaN	2	5	0.127937622744553	1	1	NaN	256	5	4	1	121	221	321	NaN	521	3.95971757546067	2	1	NaN	4402459.2369764	NaN	4402460.2203986	4402460.73695382
96	19	0	0	90	36.1581920903955	36.241610738255	9	0.300029687918723	2	9	2	NaN	2	5	0.127937622744553	1	1	NaN	257	5	5	1	121	221	321	NaN	521	1.10818457510322	1	0	NaN	4402465.504169	NaN	4402466.4876667	4402467.00423232
96	19	0	0	90	36.1581920903955	36.241610738255	10	0.333366319909692	2	3	4	NaN	1	5	0.127937622744553	1	1	NaN	258	5	6	1	121	221	321	NaN	521	0.331457927823067	1	1	NaN	4402468.9212986	NaN	4402469.904683	4402470.42123617
96	19	0	0	90	36.1581920903955	36.241610738255	13	0.433376215882599	2	2	4	NaN	1	4	0.127937622744553	1	1	NaN	259	5	7	1	121	221	321	NaN	521	0.457872835919261	1	1	NaN	4402471.5547634	NaN	4402472.5383022	4402473.05483596
96	19	0	0	90	36.1581920903955	36.241610738255	23	0.766742535792291	2	9	2	NaN	2	4	0.127937622744553	1	1	NaN	260	5	8	1	121	221	321	NaN	521	1.32266872376204	1	0	NaN	4402474.3218063	NaN	4402475.305217	4402475.82176928
96	19	0	0	90	36.1581920903955	36.241610738255	17	0.566722743846476	2	7	6	NaN	2	4	0.127937622744553	1	1	NaN	261	5	9	1	121	221	321	NaN	521	0.600934932008386	2	1	NaN	4402477.955509	NaN	4402478.9388315	4402479.45548267
96	19	0	0	90	36.1581920903955	36.241610738255	8	0.266693055927753	2	3	3	NaN	1	4	0.127937622744553	1	1	NaN	262	5	10	1	121	221	321	NaN	521	0.372341022826731	1	1	NaN	4402480.8724787	NaN	4402481.8558755	4402482.37240968
96	19	0	0	90	36.1581920903955	36.241610738255	20	0.666732639819384	2	4	4	NaN	1	4	0.127937622744553	1	1	NaN	263	5	11	1	121	221	321	NaN	521	0.464450727216899	2	0	NaN	4402483.5560857	NaN	4402484.539461	4402485.05601627
96	19	0	0	90	36.1581920903955	36.241610738255	11	0.366702951900661	2	2	4	NaN	1	3	0.127937622744553	1	1	NaN	264	5	12	1	121	221	321	NaN	521	0.473102627322078	1	1	NaN	4402486.3396544	NaN	4402487.3230625	4402487.83961337
96	19	0	0	90	36.1581920903955	36.241610738255	11	0.366702951900661	2	12	1	NaN	2	4	0.127937622744553	1	1	NaN	265	5	13	1	121	221	321	NaN	521	1.72923682723194	2	1	NaN	4402489.123303	NaN	4402490.106602	4402490.62321827
96	19	0	0	90	36.1581920903955	36.241610738255	23	0.766742535792291	2	4	4	NaN	1	4	0.127937622744553	1	1	NaN	266	5	14	1	121	221	321	NaN	521	0.959124075248837	1	1	NaN	4402493.1736826	NaN	4402494.1570859	4402494.67362473
96	19	0	0	90	36.1581920903955	36.241610738255	20	0.666732639819384	2	4	6	NaN	1	5	0.127937622744553	1	1	NaN	267	5	15	1	121	221	321	NaN	521	0.484132627025247	1	1	NaN	4402496.440656	NaN	4402497.423963	4402497.94061507
96	19	0	0	90	36.1581920903955	36.241610738255	16	0.533386111855507	2	3	6	NaN	1	3	0.127937622744553	1	1	NaN	268	5	16	1	121	221	321	NaN	521	4.08383552730083	1	1	NaN	4402499.2409275	NaN	4402500.2243299	4402500.74089067
96	19	0	0	90	36.1581920903955	36.241610738255	7	0.233356423936784	2	2	5	NaN	1	4	0.127937622744553	1	1	NaN	269	5	17	1	121	221	321	NaN	521	4.38727742712945	1	1	NaN	4402505.6415957	NaN	4402506.6249658	4402507.14151717
96	19	0	0	90	36.1581920903955	36.241610738255	6	0.200019791945815	2	2	6	NaN	1	5	0.127937622744553	1	1	NaN	270	5	18	1	121	221	321	NaN	521	2.32632407546043	1	1	NaN	4402512.3423087	NaN	4402513.3256049	4402513.84217102
96	19	0	0	90	36.1581920903955	36.241610738255	17	0.566722743846476	2	12	3	NaN	2	4	0.127937622744553	1	1	NaN	271	5	19	1	121	221	321	NaN	521	1.63684297539294	2	1	NaN	4402516.9760111	NaN	4402517.9594167	4402518.47596242
96	19	0	0	90	36.1581920903955	36.241610738255	25	0.83341579977423	2	2	1	NaN	1	4	0.127937622744553	1	1	NaN	272	5	20	1	121	221	321	NaN	521	1.13403567485511	1	1	NaN	4402520.9262923	NaN	4402521.9097867	4402522.42634453
96	19	0	0	90	36.1581920903955	36.241610738255	0	0	1	9	3	NaN	2	5	0.127937622744553	1	1	NaN	273	5	21	1	111	211	311	NaN	511	0.748128026723862	2	1	NaN	4402524.3768187	NaN	4402525.360124	4402525.87669427
96	19	0	0	90	36.1581920903955	36.241610738255	12	0.40003958389163	2	3	3	NaN	1	4	0.127937622744553	1	1	NaN	274	5	22	1	121	221	321	NaN	521	1.44897802639753	1	1	NaN	4402527.4437097	NaN	4402528.4271762	4402528.94365467
96	19	0	0	90	36.1581920903955	36.241610738255	17	0.566722743846476	2	2	4	NaN	1	3	0.127937622744553	1	1	NaN	275	5	23	1	121	221	321	NaN	521	1.39385772775859	1	1	NaN	4402531.2107431	NaN	4402532.1941428	4402532.71069547
96	19	0	0	90	36.1581920903955	36.241610738255	24	0.80007916778326	2	10	4	NaN	2	5	0.127937622744553	1	1	NaN	276	5	24	1	121	221	321	NaN	521	1.00553937442601	2	1	NaN	4402534.9111039	NaN	4402535.8945011	4402536.41105543
96	19	0	0	90	36.1581920903955	36.241610738255	22	0.733405903801322	2	1	4	NaN	1	5	0.127937622744553	1	1	NaN	277	5	25	1	121	221	321	NaN	521	1.47236317582428	1	1	NaN	4402538.2281004	NaN	4402539.2115095	4402539.72804782
96	19	0	0	90	36.1581920903955	36.241610738255	14	0.466712847873569	2	9	5	NaN	2	4	0.127937622744553	1	1	NaN	278	5	26	1	121	221	321	NaN	521	1.19310219585896	1	0	NaN	4402542.0118012	NaN	4402542.9951976	4402543.5117644
96	19	0	0	90	36.1581920903955	36.241610738255	22	0.733405903801322	2	5	4	NaN	1	3	0.127937622744553	1	1	NaN	279	5	27	1	121	221	321	NaN	521	0.820453427731991	1	1	NaN	4402545.5121492	NaN	4402546.4955507	4402547.01210227
96	19	0	0	90	36.1581920903955	36.241610738255	14	0.466712847873569	2	2	1	NaN	1	3	0.127937622744553	1	1	NaN	280	5	28	1	121	221	321	NaN	521	2.08669242728502	1	1	NaN	4402548.6457849	NaN	4402549.6291783	4402550.14573697
96	19	0	0	90	36.1581920903955	36.241610738255	13	0.433376215882599	2	3	5	NaN	1	3	0.127937622744553	1	1	NaN	281	5	29	1	121	221	321	NaN	521	0.470559427514672	1	1	NaN	4402553.046115	NaN	4402554.0296274	4402554.54617817
96	19	0	0	90	36.1581920903955	36.241610738255	8	0.266693055927753	2	10	6	NaN	2	5	0.127937622744553	1	1	NaN	282	5	30	1	121	221	321	NaN	521	0.518791227601469	2	1	NaN	4402555.8298449	NaN	4402556.8132335	4402557.32977717
96	19	0	0	90	36.1581920903955	36.241610738255	7	0.233356423936784	2	9	6	NaN	2	4	0.127937622744553	1	1	NaN	283	5	31	1	121	221	321	NaN	521	0.756989974528551	2	1	NaN	4402558.6633328	NaN	4402559.6468687	4402560.16339143
96	19	0	0	90	36.1581920903955	36.241610738255	7	0.233356423936784	2	11	5	NaN	2	3	0.127937622744553	1	1	NaN	284	5	32	1	121	221	321	NaN	521	0.530292327515781	2	1	NaN	4402561.7304088	NaN	4402562.7138105	4402563.23035537
96	19	0	0	90	36.1581920903955	36.241610738255	17	0.566722743846476	2	1	1	NaN	1	5	0.127937622744553	1	1	NaN	285	5	33	1	121	221	321	NaN	521	1.12053932715207	1	1	NaN	4402564.5640509	NaN	4402565.5474074	4402566.06397847
96	19	0	0	90	36.1581920903955	36.241610738255	17	0.566722743846476	2	9	6	NaN	2	3	0.127937622744553	1	1	NaN	286	5	34	1	121	221	321	NaN	521	0.351236875168979	2	1	NaN	4402567.9976894	NaN	4402568.9810706	4402569.49763982
96	19	0	0	90	36.1581920903955	36.241610738255	17	0.566722743846476	2	5	6	NaN	1	4	0.127937622744553	1	1	NaN	287	5	35	1	121	221	321	NaN	521	0.403794826939702	1	1	NaN	4402570.6646189	NaN	4402571.64802	4402572.16457667
96	19	0	0	90	36.1581920903955	36.241610738255	20	0.666732639819384	2	8	4	NaN	2	4	0.127937622744553	1	1	NaN	288	5	36	1	121	221	321	NaN	521	0.670885931700468	2	1	NaN	4402573.3815491	NaN	4402574.3649553	4402574.88150817
96	19	0	0	90	36.1581920903955	36.241610738255	12	0.40003958389163	2	6	6	NaN	1	3	0.127937622744553	1	1	NaN	289	5	37	1	121	221	321	NaN	521	0.318692122586071	1	1	NaN	4402576.3818826	NaN	4402577.3652735	4402577.88180398
96	19	0	0	90	36.1581920903955	36.241610738255	13	0.433376215882599	2	5	4	NaN	1	3	0.127937622744553	1	1	NaN	290	5	38	1	121	221	321	NaN	521	2.27702387515455	1	1	NaN	4402579.0153444	NaN	4402579.9988382	4402580.51539303
96	19	0	0	90	36.1581920903955	36.241610738255	24	0.80007916778326	2	8	3	NaN	2	4	0.127937622744553	1	1	NaN	291	5	39	1	121	221	321	NaN	521	0.565746975131333	2	1	NaN	4402583.5993284	NaN	4402584.5825813	4402585.09917562
96	19	0	0	90	36.1581920903955	36.241610738255	7	0.233356423936784	2	10	5	NaN	2	5	0.127937622744553	1	1	NaN	292	5	40	1	121	221	321	NaN	521	0.700934226624668	2	1	NaN	4402586.7995461	NaN	4402587.7829377	4402588.29948837
96	19	0	0	90	36.1581920903955	36.241610738255	22	0.733405903801322	2	5	5	NaN	1	4	0.127937622744553	1	1	NaN	293	5	41	1	121	221	321	NaN	521	2.45214957557619	2	0	NaN	4402589.8165037	NaN	4402590.799906	4402591.31645432
96	19	0	0	90	36.1581920903955	36.241610738255	24	0.80007916778326	2	4	2	NaN	1	4	0.127937622744553	1	1	NaN	294	5	42	1	121	221	321	NaN	521	0.789277874864638	2	0	NaN	4402594.5836026	NaN	4402595.5670991	4402596.08358223
96	19	0	0	90	36.1581920903955	36.241610738255	21	0.700069271810353	2	12	2	NaN	2	3	0.127937622744553	1	1	NaN	295	5	43	1	121	221	321	NaN	521	0.52054722700268	2	1	NaN	4402597.6839443	NaN	4402598.6673454	4402599.18389747
96	19	0	0	90	36.1581920903955	36.241610738255	7	0.233356423936784	2	8	6	NaN	2	5	0.127937622744553	1	1	NaN	296	5	44	1	121	221	321	NaN	521	0.503102975897491	2	1	NaN	4402600.5175602	NaN	4402601.5009525	4402602.01750582
96	19	0	0	90	36.1581920903955	36.241610738255	19	0.633396007828414	2	1	6	NaN	1	5	0.127937622744553	1	1	NaN	297	5	45	1	121	221	321	NaN	521	0.510425127111375	1	1	NaN	4402603.3344975	NaN	4402604.317895	4402604.83445327
96	19	0	0	90	36.1581920903955	36.241610738255	9	0.300029687918723	2	12	1	NaN	2	5	0.127937622744553	1	1	NaN	298	5	46	1	121	221	321	NaN	521	0.412476475350559	2	1	NaN	4402606.1681323	NaN	4402607.1515391	4402607.66808202
96	19	0	0	90	36.1581920903955	36.241610738255	25	0.83341579977423	2	1	3	NaN	1	5	0.127937622744553	1	1	NaN	299	5	47	1	121	221	321	NaN	521	0.431933627463877	1	1	NaN	4402608.8850401	NaN	4402609.8684383	4402610.38499957
96	19	0	0	90	36.1581920903955	36.241610738255	15	0.500049479864538	2	12	5	NaN	2	5	0.127937622744553	1	1	NaN	300	5	48	1	121	221	321	NaN	521	0.449577027000487	2	1	NaN	4402611.6353188	NaN	4402612.618717	4402613.13527277
96	19	0	0	90	36.1581920903955	36.241610738255	16	0.533386111855507	2	12	6	NaN	2	5	0.127937622744553	1	1	NaN	301	5	49	1	121	221	321	NaN	521	0.915365474298596	2	1	NaN	4402614.3856402	NaN	4402615.3689882	4402615.88553283
96	19	0	0	90	36.1581920903955	36.241610738255	8	0.266693055927753	2	1	2	NaN	1	5	0.127937622744553	1	1	NaN	302	5	50	1	121	221	321	NaN	521	0.474210974760354	1	1	NaN	4402617.6025573	NaN	4402618.5859633	4402619.10251843
96	19	0	0	90	36.1581920903955	36.241610738255	20	0.666732639819384	2	9	1	NaN	2	5	0.127937622744553	1	1	NaN	303	5	51	1	121	221	321	NaN	521	3.45543844345957	2	1	NaN	4402620.6695053	NaN	4402621.6529572	4402622.16948906
96	19	0	0	90	36.1581920903955	36.241610738255	8	0.266693055927753	2	2	6	NaN	1	3	0.127937622744553	1	1	NaN	304	5	52	1	121	221	321	NaN	521	0.915726826526225	2	0	NaN	4402626.73677	NaN	4402627.7202283	4402628.23674757
96	19	0	0	90	36.1581920903955	36.241610738255	15	0.500049479864538	2	9	4	NaN	2	5	0.127937622744553	1	1	NaN	305	5	53	1	121	221	321	NaN	521	0.594604775309563	2	1	NaN	4402629.9704576	NaN	4402630.9538549	4402631.47039363
96	19	0	0	90	36.1581920903955	36.241610738255	9	0.300029687918723	2	5	2	NaN	1	3	0.127937622744553	1	1	NaN	306	5	54	1	121	221	321	NaN	521	1.22957579512149	2	0	NaN	4402632.8873917	NaN	4402633.8708021	4402634.3873638
96	19	0	0	90	36.1581920903955	36.241610738255	12	0.40003958389163	2	8	2	NaN	2	3	0.127937622744553	1	1	NaN	307	5	55	1	121	221	321	NaN	521	0.319508227519691	2	1	NaN	4402636.4210798	NaN	4402637.4044812	4402637.92104117
96	19	0	0	90	36.1581920903955	36.241610738255	18	0.600059375837445	2	6	2	NaN	1	5	0.127937622744553	1	1	NaN	308	5	56	1	121	221	321	NaN	521	0.342414113692939	1	1	NaN	4402639.0546722	NaN	4402640.0380697	4402640.55462659
96	19	0	0	90	36.1581920903955	36.241610738255	14	0.466712847873569	2	3	2	NaN	1	3	0.127937622744553	1	1	NaN	309	5	57	1	121	221	321	NaN	521	0.339897027239203	2	0	NaN	4402641.7048083	NaN	4402642.6883443	4402643.20489267
96	19	0	0	90	36.1581920903955	36.241610738255	14	0.466712847873569	2	11	5	NaN	2	4	0.127937622744553	1	1	NaN	310	5	58	1	121	221	321	NaN	521	0.737734778784215	2	1	NaN	4402644.3552126	NaN	4402645.338594	4402645.85515372
96	19	0	0	90	36.1581920903955	36.241610738255	20	0.666732639819384	2	8	5	NaN	2	3	0.127937622744553	1	1	NaN	311	5	59	1	121	221	321	NaN	521	3.03972086310387	2	1	NaN	4402647.4053762	NaN	4402648.388893	4402648.90543684
96	19	0	0	90	36.1581920903955	36.241610738255	11	0.366702951900661	2	10	1	NaN	2	5	0.127937622744553	1	1	NaN	312	5	60	1	121	221	321	NaN	521	0.936739991419017	2	1	NaN	4402652.7560141	NaN	4402653.7394283	4402654.25597141
96	19	0	0	90	36.1581920903955	36.241610738255	0	0	1	5	3	NaN	1	4	0.127937622744553	1	1	NaN	313	5	61	1	111	211	311	NaN	511	0.638273127377033	1	1	NaN	4402656.0063619	NaN	4402656.9897402	4402657.50629897
96	19	0	0	90	36.1581920903955	36.241610738255	6	0.200019791945815	2	3	1	NaN	1	5	0.127937622744553	1	1	NaN	314	5	62	1	121	221	321	NaN	521	1.68811352737248	1	1	NaN	4402658.9566268	NaN	4402659.9400082	4402660.45658707
96	19	0	0	90	36.1581920903955	36.241610738255	24	0.80007916778326	2	11	1	NaN	2	3	0.127937622744553	1	1	NaN	315	5	63	1	121	221	321	NaN	521	0.655941027216613	2	1	NaN	4402662.957024	NaN	4402663.9404201	4402664.45697707
96	19	0	0	90	36.1581920903955	36.241610738255	25	0.83341579977423	2	6	3	NaN	1	5	0.127937622744553	1	1	NaN	316	6	1	1	121	221	321	NaN	521	0.39834812656045	1	1	NaN	4402739.4146355	NaN	4402740.3979356	4402740.91449167
96	19	0	0	90	36.1581920903955	36.241610738255	22	0.733405903801322	2	7	2	NaN	2	5	0.127937622744553	1	1	NaN	317	6	2	1	121	221	321	NaN	521	0.369286863133311	2	1	NaN	4402742.1314823	NaN	4402743.1148687	4402743.63141194
96	19	0	0	90	36.1581920903955	36.241610738255	11	0.366702951900661	2	6	6	NaN	1	5	0.127937622744553	1	1	NaN	318	6	3	1	121	221	321	NaN	521	0.991031027399004	1	1	NaN	4402745.181763	NaN	4402746.165149	4402746.68172877
96	19	0	0	90	36.1581920903955	36.241610738255	7	0.233356423936784	2	9	4	NaN	2	3	0.127937622744553	1	1	NaN	319	6	4	1	121	221	321	NaN	521	1.86657267902046	2	1	NaN	4402748.4819786	NaN	4402749.4654759	4402749.98205062
96	19	0	0	90	36.1581920903955	36.241610738255	7	0.233356423936784	2	10	3	NaN	2	3	0.127937622744553	1	1	NaN	320	6	5	1	121	221	321	NaN	521	1.7869400754571	2	1	NaN	4402752.6658153	NaN	4402753.6492239	4402754.16578402
96	19	0	0	90	36.1581920903955	36.241610738255	23	0.766742535792291	2	5	3	NaN	1	5	0.127937622744553	1	1	NaN	321	6	6	1	121	221	321	NaN	521	0.958955422975123	1	1	NaN	4402756.7662396	NaN	4402757.7496389	4402758.26618848
96	19	0	0	90	36.1581920903955	36.241610738255	25	0.83341579977423	2	7	5	NaN	2	3	0.127937622744553	1	1	NaN	322	6	7	1	121	221	321	NaN	521	4.96386502683163	2	1	NaN	4402760.0332306	NaN	4402761.0166188	4402761.53318787
96	19	0	0	90	36.1581920903955	36.241610738255	25	0.83341579977423	2	1	3	NaN	1	4	0.127937622744553	1	1	NaN	323	6	8	1	121	221	321	NaN	521	0.711832635104656	1	1	NaN	4402767.3172783	NaN	4402768.3007042	4402768.81723326
96	19	0	0	90	36.1581920903955	36.241610738255	6	0.200019791945815	2	9	3	NaN	2	5	0.127937622744553	1	1	NaN	324	6	9	1	121	221	321	NaN	521	0.846774974837899	1	0	NaN	4402770.3342346	NaN	4402771.3176404	4402771.83418973
96	19	0	0	90	36.1581920903955	36.241610738255	9	0.300029687918723	2	1	1	NaN	1	4	0.127937622744553	1	1	NaN	325	6	10	1	121	221	321	NaN	521	0.750014523044229	1	1	NaN	4402773.5512318	NaN	4402774.53462	4402775.05117018
96	19	0	0	90	36.1581920903955	36.241610738255	20	0.666732639819384	2	1	2	NaN	1	3	0.127937622744553	1	1	NaN	326	6	11	1	121	221	321	NaN	521	0.690880727022886	1	1	NaN	4402776.6182109	NaN	4402777.6016269	4402778.11815087
96	19	0	0	90	36.1581920903955	36.241610738255	14	0.466712847873569	2	4	1	NaN	1	3	0.127937622744553	1	1	NaN	327	6	12	1	121	221	321	NaN	521	0.386365675367415	1	1	NaN	4402779.6184766	NaN	4402780.6018653	4402781.11845812
96	19	0	0	90	36.1581920903955	36.241610738255	23	0.766742535792291	2	7	3	NaN	2	4	0.127937622744553	1	1	NaN	328	6	13	1	121	221	321	NaN	521	1.00634862761945	2	1	NaN	4402782.3187505	NaN	4402783.3021674	4402783.81872867
96	19	0	0	90	36.1581920903955	36.241610738255	9	0.300029687918723	2	3	4	NaN	1	3	0.127937622744553	1	1	NaN	329	6	14	1	121	221	321	NaN	521	0.373453979380429	1	1	NaN	4402785.9356747	NaN	4402786.9191785	4402787.43572722
96	19	0	0	90	36.1581920903955	36.241610738255	11	0.366702951900661	2	11	1	NaN	2	4	0.127937622744553	1	1	NaN	330	6	15	1	121	221	321	NaN	521	0.7058110749349	2	1	NaN	4402788.619385	NaN	4402789.6027616	4402790.11932242
96	19	0	0	90	36.1581920903955	36.241610738255	18	0.600059375837445	2	9	5	NaN	2	4	0.127937622744553	1	1	NaN	331	6	16	1	121	221	321	NaN	521	0.992646327242255	1	0	NaN	4402791.6363239	NaN	4402792.6197259	4402793.13629117
96	19	0	0	90	36.1581920903955	36.241610738255	21	0.700069271810353	2	10	4	NaN	2	5	0.127937622744553	1	1	NaN	332	6	17	1	121	221	321	NaN	521	0.324369975365698	2	1	NaN	4402794.9366601	NaN	4402795.9200544	4402796.43661212
96	19	0	0	90	36.1581920903955	36.241610738255	15	0.500049479864538	2	3	1	NaN	1	3	0.127937622744553	1	1	NaN	333	6	18	1	121	221	321	NaN	521	0.410463427193463	2	0	NaN	4402797.570244	NaN	4402798.5536608	4402799.07020727
96	19	0	0	90	36.1581920903955	36.241610738255	22	0.733405903801322	2	10	3	NaN	2	5	0.127937622744553	1	1	NaN	334	6	19	1	121	221	321	NaN	521	0.204991727136075	2	1	NaN	4402800.3038915	NaN	4402801.2872497	4402801.80380407
96	19	0	0	90	36.1581920903955	36.241610738255	6	0.200019791945815	2	7	2	NaN	2	3	0.127937622744553	1	1	NaN	335	6	20	1	121	221	321	NaN	521	0.328341822139919	2	1	NaN	4402802.820696	NaN	4402803.804167	4402804.32071048
96	19	0	0	90	36.1581920903955	36.241610738255	19	0.633396007828414	2	10	2	NaN	2	5	0.127937622744553	1	1	NaN	336	6	21	1	121	221	321	NaN	521	0.421929326839745	2	1	NaN	4402805.4710319	NaN	4402806.4544237	4402806.97098077
96	19	0	0	90	36.1581920903955	36.241610738255	7	0.233356423936784	2	8	1	NaN	2	3	0.127937622744553	1	1	NaN	337	6	22	1	121	221	321	NaN	521	0.344337174668908	2	1	NaN	4402808.2046415	NaN	4402809.1880273	4402809.70457673
96	19	0	0	90	36.1581920903955	36.241610738255	12	0.40003958389163	2	11	1	NaN	2	3	0.127937622744553	1	1	NaN	338	6	23	1	121	221	321	NaN	521	0.645641326904297	2	1	NaN	4402810.8715904	NaN	4402811.854959	4402812.37151027
96	19	0	0	90	36.1581920903955	36.241610738255	16	0.533386111855507	2	10	6	NaN	2	3	0.127937622744553	1	1	NaN	339	6	24	1	121	221	321	NaN	521	0.534767626784742	2	1	NaN	4402813.8385055	NaN	4402814.8219631	4402815.33847287
96	19	0	0	90	36.1581920903955	36.241610738255	11	0.366702951900661	2	4	3	NaN	1	3	0.127937622744553	1	1	NaN	340	6	25	1	121	221	321	NaN	521	0.221066026948392	1	1	NaN	4402816.672132	NaN	4402817.6555264	4402818.17208527
96	19	0	0	90	36.1581920903955	36.241610738255	12	0.40003958389163	2	11	4	NaN	2	3	0.127937622744553	1	1	NaN	341	6	26	1	121	221	321	NaN	521	0.383269875310361	2	1	NaN	4402819.2057233	NaN	4402820.1891269	4402820.70566742
96	19	0	0	90	36.1581920903955	36.241610738255	10	0.333366319909692	2	9	3	NaN	2	5	0.127937622744553	1	1	NaN	342	6	27	1	121	221	321	NaN	521	0.243268727324903	2	1	NaN	4402821.9058519	NaN	4402822.8894083	4402823.40593297
96	19	0	0	90	36.1581920903955	36.241610738255	16	0.533386111855507	2	4	1	NaN	1	3	0.127937622744553	1	1	NaN	343	6	28	1	121	221	321	NaN	521	0.629024927504361	2	0	NaN	4402824.4562175	NaN	4402825.4396266	4402825.95618157
96	19	0	0	90	36.1581920903955	36.241610738255	17	0.566722743846476	2	6	3	NaN	1	5	0.127937622744553	1	1	NaN	344	6	29	1	121	221	321	NaN	521	0.0629416275769472	1	1	NaN	4402827.3897454	NaN	4402828.3732487	4402828.88980117
96	19	0	0	90	36.1581920903955	36.241610738255	12	0.40003958389163	2	9	4	NaN	2	4	0.127937622744553	1	1	NaN	345	6	30	1	121	221	321	NaN	521	0.367417631670833	2	1	NaN	4402829.7735127	NaN	4402830.7568447	4402831.27337447
96	19	0	0	90	36.1581920903955	36.241610738255	19	0.633396007828414	2	7	6	NaN	2	5	0.127937622744553	1	1	NaN	346	6	31	1	121	221	321	NaN	521	0.387902274727821	2	1	NaN	4402832.4571187	NaN	4402833.44042	4402833.95696643
96	19	0	0	90	36.1581920903955	36.241610738255	6	0.200019791945815	2	1	6	NaN	1	4	0.127937622744553	1	1	NaN	347	6	32	1	121	221	321	NaN	521	1.38358802255243	1	1	NaN	4402835.1571764	NaN	4402836.1406725	4402836.65723498
96	19	0	0	90	36.1581920903955	36.241610738255	0	0	1	3	1	NaN	1	5	0.127937622744553	1	1	NaN	348	6	33	1	111	211	311	NaN	511	0.323291026987135	2	0	NaN	4402838.8575891	NaN	4402839.8410421	4402840.35759467
96	19	0	0	90	36.1581920903955	36.241610738255	13	0.433376215882599	2	10	2	NaN	2	4	0.127937622744553	1	1	NaN	349	6	34	1	121	221	321	NaN	521	0.417679375037551	2	1	NaN	4402841.4912343	NaN	4402842.4746216	4402842.99117843
96	19	0	0	90	36.1581920903955	36.241610738255	11	0.366702951900661	2	9	6	NaN	2	4	0.127937622744553	1	1	NaN	350	6	35	1	121	221	321	NaN	521	1.10049772728235	1	0	NaN	4402844.2248545	NaN	4402845.2082416	4402845.72478157
96	19	0	0	90	36.1581920903955	36.241610738255	8	0.266693055927753	2	4	6	NaN	1	4	0.127937622744553	1	1	NaN	351	6	36	1	121	221	321	NaN	521	0.283210227265954	1	1	NaN	4402847.6418262	NaN	4402848.6252348	4402849.14179447
96	19	0	0	90	36.1581920903955	36.241610738255	11	0.366702951900661	2	4	4	NaN	1	4	0.127937622744553	1	1	NaN	352	6	37	1	121	221	321	NaN	521	0.659279175102711	1	1	NaN	4402850.2420941	NaN	4402851.2254954	4402851.74203792
96	19	0	0	90	36.1581920903955	36.241610738255	15	0.500049479864538	2	11	6	NaN	2	4	0.127937622744553	1	1	NaN	353	6	38	1	121	221	321	NaN	521	0.715875575318933	2	1	NaN	4402853.2090628	NaN	4402854.1924758	4402854.70899642
96	19	0	0	90	36.1581920903955	36.241610738255	15	0.500049479864538	2	10	2	NaN	2	3	0.127937622744553	1	1	NaN	354	6	39	1	121	221	321	NaN	521	0.427037174813449	2	1	NaN	4402856.2260159	NaN	4402857.2094319	4402857.72596253
96	19	0	0	90	36.1581920903955	36.241610738255	6	0.200019791945815	2	6	6	NaN	1	4	0.127937622744553	1	1	NaN	355	6	40	1	121	221	321	NaN	521	0.525777474977076	1	1	NaN	4402858.9596061	NaN	4402859.9430169	4402860.45956952
96	19	0	0	90	36.1581920903955	36.241610738255	20	0.666732639819384	2	10	2	NaN	2	5	0.127937622744553	1	1	NaN	356	6	41	1	121	221	321	NaN	521	0.555712127126753	2	1	NaN	4402861.7932463	NaN	4402862.7766287	4402863.29318637
96	19	0	0	90	36.1581920903955	36.241610738255	20	0.666732639819384	2	6	4	NaN	1	3	0.127937622744553	1	1	NaN	357	6	42	1	121	221	321	NaN	521	0.416833627037704	1	1	NaN	4402864.6600506	NaN	4402865.6435771	4402866.16013337
96	19	0	0	90	36.1581920903955	36.241610738255	25	0.83341579977423	2	5	2	NaN	1	3	0.127937622744553	1	1	NaN	358	6	43	1	121	221	321	NaN	521	0.539169470779598	1	1	NaN	4402867.3936535	NaN	4402868.3772035	4402868.89373773
96	19	0	0	90	36.1581920903955	36.241610738255	11	0.366702951900661	2	5	2	NaN	1	3	0.127937622744553	1	1	NaN	359	6	44	1	121	221	321	NaN	521	0.56096872780472	1	1	NaN	4402870.2440539	NaN	4402871.2275269	4402871.74401557
96	19	0	0	90	36.1581920903955	36.241610738255	6	0.200019791945815	2	12	2	NaN	2	5	0.127937622744553	1	1	NaN	360	6	45	1	121	221	321	NaN	521	0.518088475801051	2	1	NaN	4402873.1110162	NaN	4402874.0944102	4402874.61095622
96	19	0	0	90	36.1581920903955	36.241610738255	15	0.500049479864538	2	7	3	NaN	2	4	0.127937622744553	1	1	NaN	361	6	46	1	121	221	321	NaN	521	0.436457922682166	1	0	NaN	4402875.9446158	NaN	4402876.9280159	4402877.44456918
96	19	0	0	90	36.1581920903955	36.241610738255	8	0.266693055927753	2	5	3	NaN	1	3	0.127937622744553	1	1	NaN	362	6	47	1	121	221	321	NaN	521	0.550188027322292	1	1	NaN	4402878.6947537	NaN	4402879.6782876	4402880.19484377
96	19	0	0	90	36.1581920903955	36.241610738255	18	0.600059375837445	2	9	5	NaN	2	3	0.127937622744553	1	1	NaN	363	6	48	1	121	221	321	NaN	521	0.55528087541461	2	1	NaN	4402881.5617137	NaN	4402882.5452366	4402883.06178282
96	19	0	0	90	36.1581920903955	36.241610738255	25	0.83341579977423	2	9	1	NaN	2	3	0.127937622744553	1	1	NaN	364	6	49	1	121	221	321	NaN	521	0.704177527688444	2	1	NaN	4402884.4287858	NaN	4402885.4121882	4402885.92874177
96	19	0	0	90	36.1581920903955	36.241610738255	16	0.533386111855507	2	2	2	NaN	1	5	0.127937622744553	1	1	NaN	365	6	50	1	121	221	321	NaN	521	0.599319275468588	1	1	NaN	4402887.4457536	NaN	4402888.4291513	4402888.94569782
96	19	0	0	90	36.1581920903955	36.241610738255	14	0.466712847873569	2	6	3	NaN	1	3	0.127937622744553	1	1	NaN	366	6	51	1	121	221	321	NaN	521	0.258360874839127	1	1	NaN	4402890.3627023	NaN	4402891.3461052	4402891.86265573
96	19	0	0	90	36.1581920903955	36.241610738255	18	0.600059375837445	2	1	1	NaN	1	3	0.127937622744553	1	1	NaN	367	6	52	1	121	221	321	NaN	521	0.395702727138996	2	0	NaN	4402892.9296178	NaN	4402893.9130192	4402894.42956937
96	19	0	0	90	36.1581920903955	36.241610738255	21	0.700069271810353	2	9	3	NaN	2	4	0.127937622744553	1	1	NaN	368	6	53	1	121	221	321	NaN	521	0.0104092750698328	1	0	NaN	4402896.0798732	NaN	4402897.0633365	4402897.57987942
96	19	0	0	90	36.1581920903955	36.241610738255	19	0.633396007828414	2	8	6	NaN	2	4	0.127937622744553	1	1	NaN	369	6	54	1	121	221	321	NaN	521	0.584575327113271	2	1	NaN	4402898.3966991	NaN	4402899.3802426	4402899.89677267
96	19	0	0	90	36.1581920903955	36.241610738255	18	0.600059375837445	2	5	4	NaN	1	3	0.127937622744553	1	1	NaN	370	6	55	1	121	221	321	NaN	521	0.691984427161515	1	1	NaN	4402901.2971018	NaN	4402902.2805251	4402902.79706617
96	19	0	0	90	36.1581920903955	36.241610738255	16	0.533386111855507	2	5	6	NaN	1	5	0.127937622744553	1	1	NaN	371	6	56	1	121	221	321	NaN	521	0.332018322311342	1	1	NaN	4402904.2973982	NaN	4402905.280805	4402905.79734838
96	19	0	0	90	36.1581920903955	36.241610738255	10	0.333366319909692	2	7	2	NaN	2	4	0.127937622744553	1	1	NaN	372	6	57	1	121	221	321	NaN	521	0.825674527324736	2	1	NaN	4402906.9476701	NaN	4402907.9310681	4402908.44761987
96	19	0	0	90	36.1581920903955	36.241610738255	23	0.766742535792291	2	4	3	NaN	1	3	0.127937622744553	1	1	NaN	373	6	58	1	121	221	321	NaN	521	0.499952443875372	1	1	NaN	4402910.0813051	NaN	4402911.0647041	4402911.58126916
96	19	0	0	90	36.1581920903955	36.241610738255	12	0.40003958389163	2	12	4	NaN	2	3	0.127937622744553	1	1	NaN	374	6	59	1	121	221	321	NaN	521	0.346787127666175	1	0	NaN	4402912.8982528	NaN	4402913.8816568	4402914.39820567
96	19	0	0	90	36.1581920903955	36.241610738255	15	0.500049479864538	2	6	3	NaN	1	5	0.127937622744553	1	1	NaN	375	6	60	1	121	221	321	NaN	521	0.303796875290573	1	1	NaN	4402915.5651743	NaN	4402916.5485618	4402917.06512363
96	19	0	0	90	36.1581920903955	36.241610738255	9	0.300029687918723	2	11	1	NaN	2	4	0.127937622744553	1	1	NaN	376	6	61	1	121	221	321	NaN	521	0.383297726511955	2	1	NaN	4402918.1821791	NaN	4402919.1655352	4402919.68205767
96	19	0	0	90	36.1581920903955	36.241610738255	10	0.333366319909692	2	10	6	NaN	2	3	0.127937622744553	1	1	NaN	377	6	62	1	121	221	321	NaN	521	0.352271175011992	2	1	NaN	4402921.5490767	NaN	4402922.5324888	4402923.04905573
96	19	0	0	90	36.1581920903955	36.241610738255	23	0.766742535792291	2	8	5	NaN	2	3	0.127937622744553	1	1	NaN	378	6	63	1	121	221	321	NaN	521	0.557328927330673	2	1	NaN	4402924.2160308	NaN	4402925.1994304	4402925.71598377
96	19	0	0	90	36.1581920903955	36.241610738255	13	0.433376215882599	2	2	3	NaN	1	4	0.127937622744553	1	1	NaN	379	7	1	1	121	221	321	NaN	521	0.349401779472828	1	1	NaN	4402981.4716917	NaN	4402982.4550441	4402982.97160632
96	19	0	0	90	36.1581920903955	36.241610738255	11	0.366702951900661	2	8	2	NaN	2	3	0.127937622744553	1	1	NaN	380	7	2	1	121	221	321	NaN	521	0.690545375458896	2	1	NaN	4402984.1385767	NaN	4402985.121978	4402985.63852972
96	19	0	0	90	36.1581920903955	36.241610738255	11	0.366702951900661	2	7	1	NaN	2	3	0.127937622744553	1	1	NaN	381	7	3	1	121	221	321	NaN	521	0.538293226622045	2	1	NaN	4402987.1388751	NaN	4402988.1222771	4402988.63882767
96	19	0	0	90	36.1581920903955	36.241610738255	16	0.533386111855507	2	6	2	NaN	1	5	0.127937622744553	1	1	NaN	382	7	4	1	121	221	321	NaN	521	0.471992675215006	1	1	NaN	4402989.9891862	NaN	4402990.972461	4402991.48910232
96	19	0	0	90	36.1581920903955	36.241610738255	0	0	1	11	2	NaN	2	3	0.127937622744553	1	1	NaN	383	7	5	1	111	211	311	NaN	511	0.592707326635718	2	1	NaN	4402992.772771	NaN	4402993.7561556	4402994.27272067
96	19	0	0	90	36.1581920903955	36.241610738255	7	0.233356423936784	2	6	4	NaN	1	4	0.127937622744553	1	1	NaN	384	7	6	1	121	221	321	NaN	521	0.48415332660079	1	1	NaN	4402995.6730412	NaN	4402996.6564907	4402997.17299577
96	19	0	0	90	36.1581920903955	36.241610738255	24	0.80007916778326	2	10	3	NaN	2	4	0.127937622744553	1	1	NaN	385	7	7	1	121	221	321	NaN	521	1.27617846708745	2	1	NaN	4402998.4732003	NaN	4402999.4567504	4402999.97326773
96	19	0	0	90	36.1581920903955	36.241610738255	9	0.300029687918723	2	5	6	NaN	1	5	0.127937622744553	1	1	NaN	386	7	8	1	121	221	321	NaN	521	1.73978174384683	2	0	NaN	4403002.0735759	NaN	4403003.0570742	4403003.57363596
96	19	0	0	90	36.1581920903955	36.241610738255	9	0.300029687918723	2	7	1	NaN	2	5	0.127937622744553	1	1	NaN	387	7	9	1	121	221	321	NaN	521	0.665162979625165	2	1	NaN	4403006.1239503	NaN	4403007.1074731	4403007.62402802
96	19	0	0	90	36.1581920903955	36.241610738255	23	0.766742535792291	2	1	4	NaN	1	5	0.127937622744553	1	1	NaN	388	7	10	1	121	221	321	NaN	521	0.665451775304973	1	1	NaN	4403009.1077006	NaN	4403010.0911359	4403010.60765103
96	19	0	0	90	36.1581920903955	36.241610738255	23	0.766742535792291	2	11	3	NaN	2	4	0.127937622744553	1	1	NaN	389	7	11	1	121	221	321	NaN	521	0.428238927386701	2	1	NaN	4403012.2412384	NaN	4403013.2247769	4403013.74129647
96	19	0	0	90	36.1581920903955	36.241610738255	24	0.80007916778326	2	9	2	NaN	2	5	0.127937622744553	1	1	NaN	390	7	12	1	121	221	321	NaN	521	0.774187226779759	1	0	NaN	4403014.9749705	NaN	4403015.9583434	4403016.47489597
96	19	0	0	90	36.1581920903955	36.241610738255	0	0	1	4	3	NaN	1	5	0.127937622744553	1	1	NaN	391	7	13	1	111	211	311	NaN	511	1.03381417505443	1	1	NaN	4403018.0750992	NaN	4403019.0586902	4403019.57519653
96	19	0	0	90	36.1581920903955	36.241610738255	19	0.633396007828414	2	12	1	NaN	2	5	0.127937622744553	1	1	NaN	392	7	14	1	121	221	321	NaN	521	0.667678527534008	2	1	NaN	4403021.42559	NaN	4403022.408974	4403022.92553397
96	19	0	0	90	36.1581920903955	36.241610738255	19	0.633396007828414	2	4	6	NaN	1	4	0.127937622744553	1	1	NaN	393	7	15	1	121	221	321	NaN	521	1.07613262720406	1	1	NaN	4403024.4092216	NaN	4403025.3926255	4403025.90916207
96	19	0	0	90	36.1581920903955	36.241610738255	24	0.80007916778326	2	9	5	NaN	2	5	0.127937622744553	1	1	NaN	394	7	16	1	121	221	321	NaN	521	0.388629427179694	2	1	NaN	4403027.7927263	NaN	4403028.7762998	4403029.29281797
96	19	0	0	90	36.1581920903955	36.241610738255	17	0.566722743846476	2	9	1	NaN	2	3	0.127937622744553	1	1	NaN	395	7	17	1	121	221	321	NaN	521	2.69607097562402	2	1	NaN	4403030.493264	NaN	4403031.4765337	4403031.99309442
96	19	0	0	90	36.1581920903955	36.241610738255	19	0.633396007828414	2	3	2	NaN	1	5	0.127937622744553	1	1	NaN	396	7	18	1	121	221	321	NaN	521	0.607246374711394	2	0	NaN	4403035.510176	NaN	4403036.493699	4403037.01024613
96	19	0	0	90	36.1581920903955	36.241610738255	14	0.466712847873569	2	12	4	NaN	2	3	0.127937622744553	1	1	NaN	397	7	19	1	121	221	321	NaN	521	0.313829675316811	2	1	NaN	4403038.4272607	NaN	4403039.4106465	4403039.92720213
96	19	0	0	90	36.1581920903955	36.241610738255	20	0.666732639819384	2	12	5	NaN	2	3	0.127937622744553	1	1	NaN	398	7	20	1	121	221	321	NaN	521	0.432285374961793	2	1	NaN	4403041.0608569	NaN	4403042.0442423	4403042.56079393
96	19	0	0	90	36.1581920903955	36.241610738255	25	0.83341579977423	2	12	6	NaN	2	3	0.127937622744553	1	1	NaN	399	7	21	1	121	221	321	NaN	521	0.538287927396595	2	1	NaN	4403043.8111063	NaN	4403044.7945066	4403045.31106467
96	19	0	0	90	36.1581920903955	36.241610738255	19	0.633396007828414	2	2	5	NaN	1	5	0.127937622744553	1	1	NaN	400	7	22	1	121	221	321	NaN	521	0.280206196010113	1	1	NaN	4403046.6613964	NaN	4403047.6448	4403048.1613418
96	19	0	0	90	36.1581920903955	36.241610738255	12	0.40003958389163	2	1	5	NaN	1	4	0.127937622744553	1	1	NaN	401	7	23	1	121	221	321	NaN	521	0.24827937874943	2	0	NaN	4403049.2449747	NaN	4403050.2283819	4403050.74493742
96	19	0	0	90	36.1581920903955	36.241610738255	20	0.666732639819384	2	9	5	NaN	2	4	0.127937622744553	1	1	NaN	402	7	24	1	121	221	321	NaN	521	0.369271479547024	2	1	NaN	4403051.8118994	NaN	4403052.7953136	4403053.31185592
96	19	0	0	90	36.1581920903955	36.241610738255	18	0.600059375837445	2	2	1	NaN	1	4	0.127937622744553	1	1	NaN	403	7	25	1	121	221	321	NaN	521	0.237694774754345	2	0	NaN	4403054.4955113	NaN	4403055.4788893	4403055.99545113
96	19	0	0	90	36.1581920903955	36.241610738255	23	0.766742535792291	2	2	2	NaN	1	5	0.127937622744553	1	1	NaN	404	7	26	1	121	221	321	NaN	521	0.444455275312066	1	1	NaN	4403057.1290863	NaN	4403058.1124676	4403058.62903052
96	19	0	0	90	36.1581920903955	36.241610738255	17	0.566722743846476	2	3	6	NaN	1	5	0.127937622744553	1	1	NaN	405	7	27	1	121	221	321	NaN	521	0.573180727660656	1	1	NaN	4403059.8960255	NaN	4403060.8794231	4403061.39598217
96	19	0	0	90	36.1581920903955	36.241610738255	11	0.366702951900661	2	3	4	NaN	1	5	0.127937622744553	1	1	NaN	406	7	28	1	121	221	321	NaN	521	1.89778273180127	1	1	NaN	4403062.7797577	NaN	4403063.7630513	4403064.27959647
96	19	0	0	90	36.1581920903955	36.241610738255	0	0	1	6	6	NaN	1	3	0.127937622744553	1	1	NaN	407	7	29	1	111	211	311	NaN	511	0.481012227013707	2	0	NaN	4403066.9967327	NaN	4403067.9801183	4403068.49666797
96	19	0	0	90	36.1581920903955	36.241610738255	19	0.633396007828414	2	4	6	NaN	1	5	0.127937622744553	1	1	NaN	408	7	30	1	121	221	321	NaN	521	0.329229175113142	1	1	NaN	4403069.780234	NaN	4403070.7637424	4403071.28028022
96	19	0	0	90	36.1581920903955	36.241610738255	18	0.600059375837445	2	8	6	NaN	2	3	0.127937622744553	1	1	NaN	409	7	31	1	121	221	321	NaN	521	0.519249374978244	2	1	NaN	4403072.4139322	NaN	4403073.3973296	4403073.91386873
96	19	0	0	90	36.1581920903955	36.241610738255	11	0.366702951900661	2	11	6	NaN	2	4	0.127937622744553	1	1	NaN	410	7	32	1	121	221	321	NaN	521	0.836974775418639	2	1	NaN	4403075.2640807	NaN	4403076.2476129	4403076.76414622
96	19	0	0	90	36.1581920903955	36.241610738255	10	0.333366319909692	2	12	1	NaN	2	3	0.127937622744553	1	1	NaN	411	7	33	1	121	221	321	NaN	521	0.43073767516762	2	1	NaN	4403078.4145156	NaN	4403079.3979196	4403079.91446192
96	19	0	0	90	36.1581920903955	36.241610738255	7	0.233356423936784	2	12	2	NaN	2	5	0.127937622744553	1	1	NaN	412	7	34	1	121	221	321	NaN	521	0.576566922478378	2	1	NaN	4403081.1648403	NaN	4403082.1481777	4403082.66472828
96	19	0	0	90	36.1581920903955	36.241610738255	19	0.633396007828414	2	3	1	NaN	1	4	0.127937622744553	1	1	NaN	413	7	35	1	121	221	321	NaN	521	0.340690626762807	1	1	NaN	4403084.0650878	NaN	4403085.0484717	4403085.56502227
96	19	0	0	90	36.1581920903955	36.241610738255	12	0.40003958389163	2	7	1	NaN	2	4	0.127937622744553	1	1	NaN	414	7	36	1	121	221	321	NaN	521	0.810334979556501	2	1	NaN	4403086.7153294	NaN	4403087.6987334	4403088.21528462
96	19	0	0	90	36.1581920903955	36.241610738255	10	0.333366319909692	2	1	1	NaN	1	3	0.127937622744553	1	1	NaN	415	7	37	1	121	221	321	NaN	521	0.765285927802324	1	1	NaN	4403089.832299	NaN	4403090.8156975	4403091.33224397
96	19	0	0	90	36.1581920903955	36.241610738255	10	0.333366319909692	2	3	5	NaN	1	5	0.127937622744553	1	1	NaN	416	7	38	1	121	221	321	NaN	521	0.425357875414193	1	1	NaN	4403092.9158231	NaN	4403093.8993307	4403094.41588712
96	19	0	0	90	36.1581920903955	36.241610738255	25	0.83341579977423	2	8	5	NaN	2	3	0.127937622744553	1	1	NaN	417	7	39	1	121	221	321	NaN	521	0.539765975438058	2	1	NaN	4403095.6495444	NaN	4403096.6329192	4403097.14948452
96	19	0	0	90	36.1581920903955	36.241610738255	7	0.233356423936784	2	5	5	NaN	1	3	0.127937622744553	1	1	NaN	418	7	40	1	121	221	321	NaN	521	0.441389175131917	2	0	NaN	4403098.4998093	NaN	4403099.4832341	4403099.99976863
96	19	0	0	90	36.1581920903955	36.241610738255	12	0.40003958389163	2	7	3	NaN	2	3	0.127937622744553	1	1	NaN	419	7	41	1	121	221	321	NaN	521	0.539224127307534	2	1	NaN	4403101.2500858	NaN	4403102.2334832	4403102.75005167
96	19	0	0	90	36.1581920903955	36.241610738255	14	0.466712847873569	2	11	6	NaN	2	3	0.127937622744553	1	1	NaN	420	7	42	1	121	221	321	NaN	521	0.512966775335371	2	1	NaN	4403104.100396	NaN	4403105.0837644	4403105.60031812
96	19	0	0	90	36.1581920903955	36.241610738255	6	0.200019791945815	2	4	2	NaN	1	3	0.127937622744553	1	1	NaN	421	7	43	1	121	221	321	NaN	521	0.799252326600254	2	0	NaN	4403106.9340089	NaN	4403107.9174177	4403108.43392977
96	19	0	0	90	36.1581920903955	36.241610738255	12	0.40003958389163	2	4	1	NaN	1	3	0.127937622744553	1	1	NaN	422	7	44	1	121	221	321	NaN	521	0.450510227121413	2	0	NaN	4403110.0509516	NaN	4403111.0343511	4403111.55093617
96	19	0	0	90	36.1581920903955	36.241610738255	25	0.83341579977423	2	12	4	NaN	2	4	0.127937622744553	1	1	NaN	423	7	45	1	121	221	321	NaN	521	0.779643074609339	1	0	NaN	4403112.8178941	NaN	4403113.8012817	4403114.31783483
96	19	0	0	90	36.1581920903955	36.241610738255	25	0.83341579977423	2	3	4	NaN	1	3	0.127937622744553	1	1	NaN	424	7	46	1	121	221	321	NaN	521	0.759120243601501	1	1	NaN	4403115.9182072	NaN	4403116.9015956	4403117.41814586
96	19	0	0	90	36.1581920903955	36.241610738255	25	0.83341579977423	2	3	2	NaN	1	3	0.127937622744553	1	1	NaN	425	7	47	1	121	221	321	NaN	521	0.428150343708694	1	1	NaN	4403118.985292	NaN	4403119.9685703	4403120.48511956
96	19	0	0	90	36.1581920903955	36.241610738255	13	0.433376215882599	2	9	4	NaN	2	3	0.127937622744553	1	1	NaN	426	7	48	1	121	221	321	NaN	521	0.326834991574287	2	1	NaN	4403121.7187801	NaN	4403122.7021549	4403123.21872641
96	19	0	0	90	36.1581920903955	36.241610738255	7	0.233356423936784	2	7	4	NaN	2	5	0.127937622744553	1	1	NaN	427	7	49	1	121	221	321	NaN	521	0.332248735241592	2	1	NaN	4403124.369037	NaN	4403125.3524267	4403125.86897436
96	19	0	0	90	36.1581920903955	36.241610738255	0	0	1	10	5	NaN	2	3	0.127937622744553	1	1	NaN	428	7	50	1	111	211	311	NaN	511	0.234193527139723	1	0	NaN	4403127.0192804	NaN	4403128.0026832	4403128.51923697
96	19	0	0	90	36.1581920903955	36.241610738255	14	0.466712847873569	2	7	4	NaN	2	5	0.127937622744553	1	1	NaN	429	7	51	1	121	221	321	NaN	521	3.38011862803251	2	1	NaN	4403129.5695452	NaN	4403130.5529373	4403131.06949327
96	19	0	0	90	36.1581920903955	36.241610738255	15	0.500049479864538	2	2	4	NaN	1	4	0.127937622744553	1	1	NaN	430	7	52	1	121	221	321	NaN	521	1.28740572743118	2	0	NaN	4403135.2700958	NaN	4403136.2535045	4403136.77005287
96	19	0	0	90	36.1581920903955	36.241610738255	25	0.83341579977423	2	6	3	NaN	1	4	0.127937622744553	1	1	NaN	431	7	53	1	121	221	321	NaN	521	0.925618926994503	1	1	NaN	4403138.9037414	NaN	4403139.8871875	4403140.40374157
96	19	0	0	90	36.1581920903955	36.241610738255	9	0.300029687918723	2	1	4	NaN	1	3	0.127937622744553	1	1	NaN	432	7	54	1	121	221	321	NaN	521	1.49185467511415	1	1	NaN	4403142.1374513	NaN	4403143.1208318	4403143.63738993
96	19	0	0	90	36.1581920903955	36.241610738255	17	0.566722743846476	2	11	5	NaN	2	3	0.127937622744553	1	1	NaN	433	7	55	1	121	221	321	NaN	521	0.875608527101576	2	1	NaN	4403145.937811	NaN	4403146.9212118	4403147.43776907
96	19	0	0	90	36.1581920903955	36.241610738255	10	0.333366319909692	2	6	6	NaN	1	5	0.127937622744553	1	1	NaN	434	7	56	1	121	221	321	NaN	521	0.604217327199876	1	1	NaN	4403149.1214668	NaN	4403150.1048566	4403150.62140737
96	19	0	0	90	36.1581920903955	36.241610738255	20	0.666732639819384	2	3	2	NaN	1	3	0.127937622744553	1	1	NaN	435	7	57	1	121	221	321	NaN	521	0.822984375059605	1	1	NaN	4403152.0384613	NaN	4403153.021698	4403153.53835543
96	19	0	0	90	36.1581920903955	36.241610738255	8	0.266693055927753	2	11	3	NaN	2	3	0.127937622744553	1	1	NaN	436	7	58	1	121	221	321	NaN	521	0.465460826642811	2	1	NaN	4403155.1720557	NaN	4403156.1554553	4403156.67200987
96	19	0	0	90	36.1581920903955	36.241610738255	7	0.233356423936784	2	4	2	NaN	1	5	0.127937622744553	1	1	NaN	437	7	59	1	121	221	321	NaN	521	0.473826727829874	2	0	NaN	4403157.9557666	NaN	4403158.9390594	4403159.45561317
96	19	0	0	90	36.1581920903955	36.241610738255	0	0	1	1	2	NaN	1	3	0.127937622744553	1	1	NaN	438	7	60	1	111	211	311	NaN	511	0.346003674902022	1	1	NaN	4403160.7392759	NaN	4403161.722655	4403162.23921733
96	19	0	0	90	36.1581920903955	36.241610738255	21	0.700069271810353	2	3	4	NaN	1	3	0.127937622744553	1	1	NaN	439	7	61	1	121	221	321	NaN	521	0.223953327164054	1	1	NaN	4403163.3895316	NaN	4403164.3728011	4403164.88948307
96	19	0	0	90	36.1581920903955	36.241610738255	11	0.366702951900661	2	8	3	NaN	2	4	0.127937622744553	1	1	NaN	440	7	62	1	121	221	321	NaN	521	0.306424023583531	2	1	NaN	4403165.9231001	NaN	4403166.9065036	4403167.42305218
96	19	0	0	90	36.1581920903955	36.241610738255	0	0	1	12	5	NaN	2	4	0.127937622744553	1	1	NaN	441	7	63	1	111	211	311	NaN	511	0.657669974491	2	1	NaN	4403168.5400354	NaN	4403169.5234744	4403170.03998403
96	19	0	0	90	36.1581920903955	36.241610738255	8	0.266693055927753	2	6	6	NaN	1	3	0.127937622744553	1	1	NaN	442	8	1	1	121	221	321	NaN	521	0.445867091417313	1	1	NaN	4403225.2956147	NaN	4403226.2790028	4403226.79556111
96	19	0	0	90	36.1581920903955	36.241610738255	22	0.733405903801322	2	10	1	NaN	2	5	0.127937622744553	1	1	NaN	443	8	2	1	121	221	321	NaN	521	0.271407174877822	2	1	NaN	4403228.0625573	NaN	4403229.0459427	4403229.56249813
96	19	0	0	90	36.1581920903955	36.241610738255	19	0.633396007828414	2	9	2	NaN	2	4	0.127937622744553	1	1	NaN	444	8	3	1	121	221	321	NaN	521	0.359503475017846	2	1	NaN	4403230.6461295	NaN	4403231.6295326	4403232.14608173
96	19	0	0	90	36.1581920903955	36.241610738255	19	0.633396007828414	2	6	4	NaN	1	4	0.127937622744553	1	1	NaN	445	8	4	1	121	221	321	NaN	521	0.428549975156784	1	1	NaN	4403233.313079	NaN	4403234.2964728	4403234.81300872
96	19	0	0	90	36.1581920903955	36.241610738255	9	0.300029687918723	2	10	1	NaN	2	4	0.127937622744553	1	1	NaN	446	8	5	1	121	221	321	NaN	521	0.406215026974678	2	1	NaN	4403236.0633664	NaN	4403237.0467311	4403237.56328707
96	19	0	0	90	36.1581920903955	36.241610738255	12	0.40003958389163	2	4	4	NaN	1	5	0.127937622744553	1	1	NaN	447	8	6	1	121	221	321	NaN	521	0.681485175155103	1	1	NaN	4403238.7802592	NaN	4403239.763664	4403240.28021962
96	19	0	0	90	36.1581920903955	36.241610738255	8	0.266693055927753	2	6	1	NaN	1	4	0.127937622744553	1	1	NaN	448	8	7	1	121	221	321	NaN	521	0.352992527186871	1	1	NaN	4403241.7805701	NaN	4403242.7639611	4403243.28051937
96	19	0	0	90	36.1581920903955	36.241610738255	13	0.433376215882599	2	8	3	NaN	2	3	0.127937622744553	1	1	NaN	449	8	8	1	121	221	321	NaN	521	0.56639217492193	2	1	NaN	4403244.447483	NaN	4403245.4309207	4403245.94743562
96	19	0	0	90	36.1581920903955	36.241610738255	16	0.533386111855507	2	6	1	NaN	1	3	0.127937622744553	1	1	NaN	450	8	9	1	121	221	321	NaN	521	0.498325726948678	1	1	NaN	4403247.331112	NaN	4403248.3145074	4403248.83106237
96	19	0	0	90	36.1581920903955	36.241610738255	25	0.83341579977423	2	5	3	NaN	1	5	0.127937622744553	1	1	NaN	451	8	10	1	121	221	321	NaN	521	0.449879675172269	1	1	NaN	4403250.1480503	NaN	4403251.1314438	4403251.64799752
96	19	0	0	90	36.1581920903955	36.241610738255	18	0.600059375837445	2	11	2	NaN	2	5	0.127937622744553	1	1	NaN	452	8	11	1	121	221	321	NaN	521	0.618461375124753	2	1	NaN	4403252.9150075	NaN	4403253.8984107	4403254.41494262
96	19	0	0	90	36.1581920903955	36.241610738255	12	0.40003958389163	2	2	5	NaN	1	5	0.127937622744553	1	1	NaN	453	8	12	1	121	221	321	NaN	521	0.461032475344837	1	1	NaN	4403255.8486107	NaN	4403256.8319972	4403257.34855722
96	19	0	0	90	36.1581920903955	36.241610738255	11	0.366702951900661	2	12	6	NaN	2	5	0.127937622744553	1	1	NaN	454	8	13	1	121	221	321	NaN	521	0.382145927287638	2	1	NaN	4403258.6155455	NaN	4403259.5989602	4403260.11550037
96	19	0	0	90	36.1581920903955	36.241610738255	21	0.700069271810353	2	4	6	NaN	1	5	0.127937622744553	1	1	NaN	455	8	14	1	121	221	321	NaN	521	0.442611226812005	1	1	NaN	4403261.2991481	NaN	4403262.2825442	4403262.79910087
96	19	0	0	90	36.1581920903955	36.241610738255	25	0.83341579977423	2	11	4	NaN	2	3	0.127937622744553	1	1	NaN	456	8	15	1	121	221	321	NaN	521	0.604292627424002	2	1	NaN	4403264.0494274	NaN	4403265.0328367	4403265.54936897
96	19	0	0	90	36.1581920903955	36.241610738255	8	0.266693055927753	2	4	1	NaN	1	4	0.127937622744553	1	1	NaN	457	8	16	1	121	221	321	NaN	521	0.687537374906242	1	1	NaN	4403266.9663664	NaN	4403267.949766	4403268.46632183
96	19	0	0	90	36.1581920903955	36.241610738255	21	0.700069271810353	2	6	6	NaN	1	5	0.127937622744553	1	1	NaN	458	8	17	1	121	221	321	NaN	521	0.654907126910985	1	1	NaN	4403269.9666605	NaN	4403270.950061	4403271.46662107
96	19	0	0	90	36.1581920903955	36.241610738255	12	0.40003958389163	2	2	1	NaN	1	3	0.127937622744553	1	1	NaN	459	8	18	1	121	221	321	NaN	521	1.30385383591056	2	0	NaN	4403272.9336292	NaN	4403273.9170194	4403274.43357306
96	19	0	0	90	36.1581920903955	36.241610738255	17	0.566722743846476	2	11	5	NaN	2	3	0.127937622744553	1	1	NaN	460	8	19	1	121	221	321	NaN	521	0.406901932321489	2	1	NaN	4403276.5506421	NaN	4403277.5340458	4403278.05059437
