subjno	age	gender	isPractice	viewdist	CmToPixX	CmToPixY	SOA_frm	SOA_time	targNum	targID	targExample	targRace	targGender	firstTargPos	contrast	familiarity	curr_staircase	iStair	TrialNum	BlockNum	blktrl	sessionNum	TC_FIXATION	TC_RSVP_START	TC_RSVP_END	TC_BLANK	TC_RESPONSE_ONSET	RT2afc	resp_2afc	acc	RSVPOnsetVBL	RSVPOnsetTime	RSVPOffsetVBL	RSVPOffsetTime	startrt_2afc
54	18	0	0	90	36.1581920903955	36.241610738255	16	0.533410495817661	2	1	6	NaN	1	4	0.231494007595073	0	1	NaN	1	1	1	2	120	220	320	NaN	520	0.0115390378050506	2	0	NaN	3269595.4237674	NaN	3269596.407037	3269596.94015466
54	18	0	0	90	36.1581920903955	36.241610738255	10	0.333381559886038	2	1	5	NaN	1	5	0.231494007595073	0	1	NaN	2	1	2	2	120	220	320	NaN	520	0.0112295378930867	2	0	NaN	3269597.8071987	NaN	3269598.7906194	3269599.32372536
54	18	0	0	90	36.1581920903955	36.241610738255	24	0.800115743726492	2	8	3	NaN	2	3	0.231494007595073	0	1	NaN	3	1	3	2	120	220	320	NaN	520	0.0105983912944794	2	1	NaN	3269600.1573313	NaN	3269601.1407317	3269601.65728851
54	18	0	0	90	36.1581920903955	36.241610738255	0	0	1	4	6	NaN	1	4	0.231494007595073	0	1	NaN	4	1	4	2	110	210	310	NaN	510	1.24988638656214	1	1	NaN	3269602.9242299	NaN	3269603.9076655	3269604.42422771
54	18	0	0	90	36.1581920903955	36.241610738255	16	0.533410495817661	2	2	1	NaN	1	5	0.231494007595073	0	1	NaN	5	1	5	2	120	220	320	NaN	520	0.147222585976124	1	1	NaN	3269606.4912802	NaN	3269607.4746847	3269607.99123681
54	18	0	0	90	36.1581920903955	36.241610738255	0	0	1	12	6	NaN	2	5	0.231494007595073	0	1	NaN	6	1	6	2	110	210	310	NaN	510	0.0104056838899851	2	1	NaN	3269608.9748648	NaN	3269609.9582674	3269610.47480802
54	18	0	0	90	36.1581920903955	36.241610738255	13	0.43339602785185	2	12	3	NaN	2	5	0.231494007595073	0	1	NaN	7	1	7	2	120	220	320	NaN	520	0.0497599351219833	2	1	NaN	3269611.3084296	NaN	3269612.2918472	3269612.80837847
54	18	0	0	90	36.1581920903955	36.241610738255	23	0.766777587737888	2	4	2	NaN	1	3	0.231494007595073	0	1	NaN	8	1	8	2	120	220	320	NaN	520	0.219113735016435	1	1	NaN	3269613.6752044	NaN	3269614.658728	3269615.17528336
54	18	0	0	90	36.1581920903955	36.241610738255	9	0.300043403897435	2	1	2	NaN	1	3	0.231494007595073	0	1	NaN	9	1	9	2	120	220	320	NaN	520	0.0103512890636921	1	1	NaN	3269616.2089112	NaN	3269617.1923005	3269617.70886001
54	18	0	0	90	36.1581920903955	36.241610738255	16	0.533410495817661	2	6	5	NaN	1	5	0.231494007595073	0	1	NaN	10	1	10	2	120	220	320	NaN	520	0.0103746866807342	2	0	NaN	3269618.5424876	NaN	3269619.5258626	3269620.04243011
54	18	0	0	90	36.1581920903955	36.241610738255	15	0.500072339829058	2	4	2	NaN	1	4	0.231494007595073	0	1	NaN	11	1	11	2	120	220	320	NaN	520	0.0103951347991824	1	1	NaN	3269620.8760421	NaN	3269621.8594215	3269622.37598587
54	18	0	0	90	36.1581920903955	36.241610738255	19	0.633424963783473	2	8	6	NaN	2	4	0.231494007595073	0	1	NaN	12	1	12	2	120	220	320	NaN	520	0.0104398834519088	1	0	NaN	3269623.2094667	NaN	3269624.1929609	3269624.70954102
54	18	0	0	90	36.1581920903955	36.241610738255	14	0.466734183840454	2	1	5	NaN	1	3	0.231494007595073	0	1	NaN	13	1	13	2	120	220	320	NaN	520	0.839253486599773	2	0	NaN	3269625.5431627	NaN	3269626.5265947	3269627.04311631
54	18	0	0	90	36.1581920903955	36.241610738255	13	0.43339602785185	2	7	1	NaN	2	5	0.231494007595073	0	1	NaN	14	1	14	2	120	220	320	NaN	520	0.920298340730369	1	0	NaN	3269628.7101456	NaN	3269629.6935496	3269630.21009416
54	18	0	0	90	36.1581920903955	36.241610738255	21	0.70010127576068	2	5	6	NaN	1	5	0.231494007595073	0	1	NaN	15	1	15	2	120	220	320	NaN	520	0.158375935163349	1	1	NaN	3269631.9437939	NaN	3269632.9271822	3269633.44373986
54	18	0	0	90	36.1581920903955	36.241610738255	14	0.466734183840454	2	5	2	NaN	1	3	0.231494007595073	0	1	NaN	16	1	16	2	120	220	320	NaN	520	0.0104685351252556	1	1	NaN	3269634.4273781	NaN	3269635.4107508	3269635.92734606
54	18	0	0	90	36.1581920903955	36.241610738255	19	0.633424963783473	2	5	2	NaN	1	5	0.231494007595073	0	1	NaN	17	1	17	2	120	220	320	NaN	520	0.0103875352069736	1	1	NaN	3269636.7609265	NaN	3269637.7443662	3269638.26088016
54	18	0	0	90	36.1581920903955	36.241610738255	6	0.200028935931623	2	11	6	NaN	2	4	0.231494007595073	0	1	NaN	18	1	18	2	120	220	320	NaN	520	0.0104076834395528	2	1	NaN	3269639.0944569	NaN	3269640.0779029	3269640.59444182
54	18	0	0	90	36.1581920903955	36.241610738255	21	0.70010127576068	2	11	3	NaN	2	3	0.231494007595073	0	1	NaN	19	1	19	2	120	220	320	NaN	520	0.010407283436507	2	1	NaN	3269641.4780337	NaN	3269642.4614787	3269642.97800402
54	18	0	0	90	36.1581920903955	36.241610738255	18	0.600086807794869	2	4	2	NaN	1	5	0.231494007595073	0	1	NaN	20	1	20	2	120	220	320	NaN	520	0.034410635009408	1	1	NaN	3269643.811636	NaN	3269644.7950264	3269645.31157746
54	18	0	0	90	36.1581920903955	36.241610738255	22	0.733439431749284	2	7	2	NaN	2	5	0.231494007595073	0	1	NaN	21	1	21	2	120	220	320	NaN	520	0.0103769865818322	1	0	NaN	3269646.1618623	NaN	3269647.1452506	3269647.66180361
54	18	0	0	90	36.1581920903955	36.241610738255	24	0.800115743726492	2	4	3	NaN	1	5	0.231494007595073	0	1	NaN	22	1	22	2	120	220	320	NaN	520	0.614578534848988	1	1	NaN	3269648.4954403	NaN	3269649.4788191	3269649.99536376
54	18	0	0	90	36.1581920903955	36.241610738255	21	0.70010127576068	2	3	5	NaN	1	5	0.231494007595073	0	1	NaN	23	1	23	2	120	220	320	NaN	520	0.128625935409218	1	1	NaN	3269652.0456477	NaN	3269653.0291698	3269653.54571856
54	18	0	0	90	36.1581920903955	36.241610738255	14	0.466734183840454	2	8	1	NaN	2	5	0.231494007595073	0	1	NaN	24	1	24	2	120	220	320	NaN	520	2.13407483510673	1	0	NaN	3269654.4959969	NaN	3269655.4794392	3269655.99595656
54	18	0	0	90	36.1581920903955	36.241610738255	10	0.333381559886038	2	11	3	NaN	2	5	0.231494007595073	0	1	NaN	25	1	25	2	120	220	320	NaN	520	0.91584938345477	1	0	NaN	3269658.9464475	NaN	3269659.929858	3269660.44639372
54	18	0	0	90	36.1581920903955	36.241610738255	19	0.633424963783473	2	4	1	NaN	1	4	0.231494007595073	0	1	NaN	26	1	26	2	120	220	320	NaN	520	0.0104054831899703	1	1	NaN	3269662.5134025	NaN	3269663.496908	3269664.01340862
54	18	0	0	90	36.1581920903955	36.241610738255	10	0.333381559886038	2	12	1	NaN	2	3	0.231494007595073	0	1	NaN	27	1	27	2	120	220	320	NaN	520	0.135116637684405	2	1	NaN	3269664.8470222	NaN	3269665.8304342	3269666.34698396
54	18	0	0	90	36.1581920903955	36.241610738255	23	0.766777587737888	2	5	4	NaN	1	5	0.231494007595073	0	1	NaN	28	1	28	2	120	220	320	NaN	520	0.0104025835171342	2	0	NaN	3269667.2972723	NaN	3269668.280666	3269668.79721062
54	18	0	0	90	36.1581920903955	36.241610738255	7	0.233367091920227	2	2	2	NaN	1	5	0.231494007595073	0	1	NaN	29	1	29	2	120	220	320	NaN	520	0.0104076834395528	1	1	NaN	3269669.6308324	NaN	3269670.6142111	3269671.13077252
54	18	0	0	90	36.1581920903955	36.241610738255	0	0	1	1	6	NaN	1	4	0.231494007595073	0	1	NaN	30	1	30	2	110	210	310	NaN	510	0.91364238364622	2	0	NaN	3269671.9643964	NaN	3269672.9477805	3269673.46433742
54	18	0	0	90	36.1581920903955	36.241610738255	22	0.733439431749284	2	6	6	NaN	1	3	0.231494007595073	0	1	NaN	31	1	31	2	120	220	320	NaN	520	0.0102994432672858	1	1	NaN	3269675.1980567	NaN	3269676.1814374	3269676.69799146
54	18	0	0	90	36.1581920903955	36.241610738255	19	0.633424963783473	2	1	5	NaN	1	5	0.231494007595073	0	1	NaN	32	1	32	2	120	220	320	NaN	520	0.0103731863200665	1	1	NaN	3269677.5316125	NaN	3269678.5150077	3269679.03155441
54	18	0	0	90	36.1581920903955	36.241610738255	21	0.70010127576068	2	2	1	NaN	1	4	0.231494007595073	0	1	NaN	33	1	33	2	120	220	320	NaN	520	0.549085034988821	1	1	NaN	3269679.8651827	NaN	3269680.8484891	3269681.36511086
54	18	0	0	90	36.1581920903955	36.241610738255	22	0.733439431749284	2	8	6	NaN	2	4	0.231494007595073	0	1	NaN	34	1	34	2	120	220	320	NaN	520	0.0104081835597754	2	1	NaN	3269682.7321155	NaN	3269683.715507	3269684.23206742
54	18	0	0	90	36.1581920903955	36.241610738255	19	0.633424963783473	2	7	1	NaN	2	4	0.231494007595073	0	1	NaN	35	1	35	2	120	220	320	NaN	520	0.734141335356981	1	0	NaN	3269685.6324765	NaN	3269686.6157771	3269687.13235396
54	18	0	0	90	36.1581920903955	36.241610738255	7	0.233367091920227	2	5	6	NaN	1	3	0.231494007595073	0	1	NaN	36	1	36	2	120	220	320	NaN	520	0.139446035493165	1	1	NaN	3269688.6826851	NaN	3269689.6661066	3269690.18265726
54	18	0	0	90	36.1581920903955	36.241610738255	17	0.566748651806265	2	1	6	NaN	1	4	0.231494007595073	0	1	NaN	37	1	37	2	120	220	320	NaN	520	0.0651116352528334	2	0	NaN	3269691.1328136	NaN	3269692.1163532	3269692.63289176
54	18	0	0	90	36.1581920903955	36.241610738255	24	0.800115743726492	2	1	6	NaN	1	5	0.231494007595073	0	1	NaN	38	1	38	2	120	220	320	NaN	520	0.441607934888452	2	0	NaN	3269693.5165209	NaN	3269694.4999121	3269695.01646387
54	18	0	0	90	36.1581920903955	36.241610738255	13	0.43339602785185	2	9	6	NaN	2	4	0.231494007595073	0	1	NaN	39	1	39	2	120	220	320	NaN	520	0.0103916353546083	2	1	NaN	3269696.2667759	NaN	3269697.2501768	3269697.76673136
54	18	0	0	90	36.1581920903955	36.241610738255	15	0.500072339829058	2	3	6	NaN	1	4	0.231494007595073	0	1	NaN	40	1	40	2	120	220	320	NaN	520	0.342541934922338	1	1	NaN	3269698.5836718	NaN	3269699.5670708	3269700.08362996
54	18	0	0	90	36.1581920903955	36.241610738255	7	0.233367091920227	2	11	3	NaN	2	5	0.231494007595073	0	1	NaN	41	1	41	2	120	220	320	NaN	520	0.0103930355980992	2	1	NaN	3269701.2339373	NaN	3269702.2173519	3269702.73388616
54	18	0	0	90	36.1581920903955	36.241610738255	21	0.70010127576068	2	9	2	NaN	2	4	0.231494007595073	0	1	NaN	42	1	42	2	120	220	320	NaN	520	0.0103792403824627	2	1	NaN	3269703.5674873	NaN	3269704.5508991	3269705.06745626
54	18	0	0	90	36.1581920903955	36.241610738255	16	0.533410495817661	2	4	6	NaN	1	5	0.231494007595073	0	1	NaN	43	1	43	2	120	220	320	NaN	520	0.0103947352617979	1	1	NaN	3269705.8843999	NaN	3269706.8677929	3269707.38433896
54	18	0	0	90	36.1581920903955	36.241610738255	11	0.366719715874642	2	11	3	NaN	2	3	0.231494007595073	0	1	NaN	44	1	44	2	120	220	320	NaN	520	0.885286335367709	2	1	NaN	3269708.201294	NaN	3269709.1846814	3269709.70124366
54	18	0	0	90	36.1581920903955	36.241610738255	19	0.633424963783473	2	10	5	NaN	2	3	0.231494007595073	0	1	NaN	45	1	45	2	120	220	320	NaN	520	0.010375986341387	2	1	NaN	3269711.4015979	NaN	3269712.3849664	3269712.90155361
54	18	0	0	90	36.1581920903955	36.241610738255	22	0.733439431749284	2	6	5	NaN	1	5	0.231494007595073	0	1	NaN	46	1	46	2	120	220	320	NaN	520	0.0103915352374315	1	1	NaN	3269713.7184942	NaN	3269714.7018897	3269715.21845256
54	18	0	0	90	36.1581920903955	36.241610738255	16	0.533410495817661	2	4	5	NaN	1	3	0.231494007595073	0	1	NaN	47	1	47	2	120	220	320	NaN	520	0.0103946351446211	1	1	NaN	3269716.0520622	NaN	3269717.035454	3269717.55200926
54	18	0	0	90	36.1581920903955	36.241610738255	14	0.466734183840454	2	7	5	NaN	2	3	0.231494007595073	0	1	NaN	48	1	48	2	120	220	320	NaN	520	0.58164832694456	1	0	NaN	3269718.3689553	NaN	3269719.3523914	3269719.86889777
54	18	0	0	90	36.1581920903955	36.241610738255	17	0.566748651806265	2	10	5	NaN	2	4	0.231494007595073	0	1	NaN	49	1	49	2	120	220	320	NaN	520	0.592896283604205	1	0	NaN	3269721.2692444	NaN	3269722.2526278	3269722.76918792
54	18	0	0	90	36.1581920903955	36.241610738255	0	0	1	12	2	NaN	2	4	0.231494007595073	0	1	NaN	50	1	50	2	110	210	310	NaN	510	0.652633246034384	2	1	NaN	3269724.1693898	NaN	3269725.1529313	3269725.66947645
54	18	0	0	90	36.1581920903955	36.241610738255	11	0.366719715874642	2	4	4	NaN	1	3	0.231494007595073	0	1	NaN	51	1	51	2	120	220	320	NaN	520	1.66803533490747	2	0	NaN	3269727.5865023	NaN	3269728.5699126	3269729.08647736
54	18	0	0	90	36.1581920903955	36.241610738255	20	0.666763119772077	2	8	4	NaN	2	3	0.231494007595073	0	1	NaN	52	1	52	2	120	220	320	NaN	520	1.38796578347683	2	1	NaN	3269731.5702405	NaN	3269732.5536321	3269733.07019432
54	18	0	0	90	36.1581920903955	36.241610738255	25	0.833453899715096	2	1	4	NaN	1	4	0.231494007595073	0	1	NaN	53	1	53	2	120	220	320	NaN	520	0.0103901354596019	1	1	NaN	3269735.2705099	NaN	3269736.2540104	3269736.77056626
54	18	0	0	90	36.1581920903955	36.241610738255	22	0.733439431749284	2	1	6	NaN	1	5	0.231494007595073	0	1	NaN	54	1	54	2	120	220	320	NaN	520	0.0107939350418746	2	0	NaN	3269737.5875176	NaN	3269738.5709145	3269739.08746256
54	18	0	0	90	36.1581920903955	36.241610738255	21	0.70010127576068	2	1	4	NaN	1	5	0.231494007595073	0	1	NaN	55	1	55	2	120	220	320	NaN	520	0.0103930351324379	1	1	NaN	3269739.9543837	NaN	3269740.9378242	3269741.45435896
54	18	0	0	90	36.1581920903955	36.241610738255	23	0.766777587737888	2	6	6	NaN	1	5	0.231494007595073	0	1	NaN	56	1	56	2	120	220	320	NaN	520	0.0229178350418806	1	1	NaN	3269742.2713016	NaN	3269743.2547155	3269743.77125596
54	18	0	0	90	36.1581920903955	36.241610738255	17	0.566748651806265	2	2	4	NaN	1	3	0.231494007595073	0	1	NaN	57	1	57	2	120	220	320	NaN	520	0.398974135518074	2	0	NaN	3269745.0714579	NaN	3269746.0549689	3269746.57152696
54	18	0	0	90	36.1581920903955	36.241610738255	10	0.333381559886038	2	6	2	NaN	1	3	0.231494007595073	0	1	NaN	58	1	58	2	120	220	320	NaN	520	0.705779035110027	1	1	NaN	3269747.7885088	NaN	3269748.7719179	3269749.28846726
54	18	0	0	90	36.1581920903955	36.241610738255	15	0.500072339829058	2	10	3	NaN	2	5	0.231494007595073	0	1	NaN	59	1	59	2	120	220	320	NaN	520	1.98508188640699	1	0	NaN	3269750.8054907	NaN	3269751.7888822	3269752.30542381
54	18	0	0	90	36.1581920903955	36.241610738255	13	0.43339602785185	2	11	1	NaN	2	5	0.231494007595073	0	1	NaN	60	1	60	2	120	220	320	NaN	520	0.0104077835567296	2	1	NaN	3269755.105757	NaN	3269756.0893046	3269756.60584212
54	18	0	0	90	36.1581920903955	36.241610738255	6	0.200028935931623	2	8	3	NaN	2	4	0.231494007595073	0	1	NaN	61	1	61	2	120	220	320	NaN	520	1.07181863486767	2	1	NaN	3269757.422793	NaN	3269758.4061681	3269758.92275986
54	18	0	0	90	36.1581920903955	36.241610738255	6	0.200028935931623	2	2	3	NaN	1	3	0.231494007595073	0	1	NaN	62	1	62	2	120	220	320	NaN	520	0.0104084834456444	1	1	NaN	3269760.8064844	NaN	3269761.7898587	3269762.30640052
54	18	0	0	90	36.1581920903955	36.241610738255	22	0.733439431749284	2	9	1	NaN	2	3	0.231494007595073	0	1	NaN	63	1	63	2	120	220	320	NaN	520	0.606382535304874	1	0	NaN	3269763.6400361	NaN	3269764.6234709	3269765.14001376
54	18	0	0	90	36.1581920903955	36.241610738255	20	0.666763119772077	2	4	3	NaN	1	3	0.231494007595073	0	1	NaN	64	2	1	2	120	220	320	NaN	520	0.69309304561466	1	1	NaN	3269789.2092517	NaN	3269790.1926549	3269790.70920025
54	18	0	0	90	36.1581920903955	36.241610738255	6	0.200028935931623	2	5	6	NaN	1	3	0.231494007595073	0	1	NaN	65	2	2	2	120	220	320	NaN	520	0.0104089835658669	1	1	NaN	3269792.642894	NaN	3269793.6263354	3269794.14287022
54	18	0	0	90	36.1581920903955	36.241610738255	25	0.833453899715096	2	8	3	NaN	2	5	0.231494007595073	0	1	NaN	66	2	3	2	120	220	320	NaN	520	0.0870713349431753	2	1	NaN	3269797.1433329	NaN	3269798.1267648	3269798.64331566
54	18	0	0	90	36.1581920903955	36.241610738255	0	0	1	8	2	NaN	2	3	0.231494007595073	0	1	NaN	67	2	4	2	110	210	310	NaN	510	0.0103921350091696	2	1	NaN	3269800.3769879	NaN	3269801.3604137	3269801.87696416
54	18	0	0	90	36.1581920903955	36.241610738255	16	0.533410495817661	2	9	3	NaN	2	3	0.231494007595073	0	1	NaN	68	2	5	2	120	220	320	NaN	520	0.0884688831865788	2	1	NaN	3269802.69391	NaN	3269803.6773007	3269804.19385792
54	18	0	0	90	36.1581920903955	36.241610738255	19	0.633424963783473	2	8	1	NaN	2	3	0.231494007595073	0	1	NaN	69	2	6	2	120	220	320	NaN	520	0.856233381200582	2	1	NaN	3269805.0941512	NaN	3269806.0775479	3269806.59408562
54	18	0	0	90	36.1581920903955	36.241610738255	15	0.500072339829058	2	8	2	NaN	2	3	0.231494007595073	0	1	NaN	70	2	7	2	120	220	320	NaN	520	0.409249983262271	2	1	NaN	3269808.2611364	NaN	3269809.2445204	3269809.76106712
54	18	0	0	90	36.1581920903955	36.241610738255	22	0.733439431749284	2	7	5	NaN	2	4	0.231494007595073	0	1	NaN	71	2	8	2	120	220	320	NaN	520	0.49271678365767	2	1	NaN	3269810.9780525	NaN	3269811.9614446	3269812.47800512
54	18	0	0	90	36.1581920903955	36.241610738255	10	0.333381559886038	2	10	1	NaN	2	5	0.231494007595073	0	1	NaN	72	2	9	2	120	220	320	NaN	520	0.572192634921521	2	1	NaN	3269813.7783349	NaN	3269814.7617323	3269815.27828726
54	18	0	0	90	36.1581920903955	36.241610738255	18	0.600086807794869	2	2	2	NaN	1	3	0.231494007595073	0	1	NaN	73	2	10	2	120	220	320	NaN	520	2.39995133550838	2	0	NaN	3269818.678724	NaN	3269819.6622182	3269820.17876476
54	18	0	0	90	36.1581920903955	36.241610738255	6	0.200028935931623	2	8	1	NaN	2	4	0.231494007595073	0	1	NaN	74	2	11	2	120	220	320	NaN	520	0.394316883292049	2	1	NaN	3269823.3959414	NaN	3269824.379342	3269824.89589132
54	18	0	0	90	36.1581920903955	36.241610738255	22	0.733439431749284	2	10	4	NaN	2	5	0.231494007595073	0	1	NaN	75	2	12	2	120	220	320	NaN	520	4.05884103523567	2	1	NaN	3269827.1796298	NaN	3269828.16307	3269828.67961616
54	18	0	0	90	36.1581920903955	36.241610738255	18	0.600086807794869	2	8	5	NaN	2	3	0.231494007595073	0	1	NaN	76	2	13	2	120	220	320	NaN	520	0.739522337913513	2	1	NaN	3269833.546938	NaN	3269834.5303379	3269835.04689036
54	18	0	0	90	36.1581920903955	36.241610738255	13	0.43339602785185	2	8	5	NaN	2	5	0.231494007595073	0	1	NaN	77	2	14	2	120	220	320	NaN	520	5.6731926323846	2	1	NaN	3269836.5972354	NaN	3269837.5806387	3269838.09718927
54	18	0	0	90	36.1581920903955	36.241610738255	19	0.633424963783473	2	6	1	NaN	1	3	0.231494007595073	0	1	NaN	78	2	15	2	120	220	320	NaN	520	7.18510453542694	2	0	NaN	3269844.5813449	NaN	3269845.5647615	3269846.08130776
54	18	0	0	90	36.1581920903955	36.241610738255	19	0.633424963783473	2	5	3	NaN	1	3	0.231494007595073	0	1	NaN	79	2	16	2	120	220	320	NaN	520	0.0103915352374315	1	1	NaN	3269854.0655021	NaN	3269855.0490384	3269855.56557526
54	18	0	0	90	36.1581920903955	36.241610738255	15	0.500072339829058	2	3	2	NaN	1	4	0.231494007595073	0	1	NaN	80	2	17	2	120	220	320	NaN	520	0.0478857969865203	1	1	NaN	3269856.3824967	NaN	3269857.3659121	3269857.8824795
54	18	0	0	90	36.1581920903955	36.241610738255	13	0.43339602785185	2	9	3	NaN	2	5	0.231494007595073	0	1	NaN	81	2	18	2	120	220	320	NaN	520	0.121052835136652	2	1	NaN	3269858.7494212	NaN	3269859.7328429	3269860.24936356
54	18	0	0	90	36.1581920903955	36.241610738255	11	0.366719715874642	2	12	2	NaN	2	5	0.231494007595073	0	1	NaN	82	2	19	2	120	220	320	NaN	520	0.0103940349072218	2	1	NaN	3269861.1829906	NaN	3269862.166391	3269862.68294286
54	18	0	0	90	36.1581920903955	36.241610738255	0	0	1	7	3	NaN	2	3	0.231494007595073	0	1	NaN	83	2	20	2	110	210	310	NaN	510	0.858581935055554	2	1	NaN	3269863.4999325	NaN	3269864.4832719	3269864.99983316
54	18	0	0	90	36.1581920903955	36.241610738255	12	0.400057871863246	2	5	2	NaN	1	4	0.231494007595073	0	1	NaN	84	2	21	2	120	220	320	NaN	520	0.0104447836056352	1	1	NaN	3269866.6668866	NaN	3269867.6502662	3269868.16681592
54	18	0	0	90	36.1581920903955	36.241610738255	16	0.533410495817661	2	12	1	NaN	2	4	0.231494007595073	0	1	NaN	85	2	22	2	120	220	320	NaN	520	0.010391035117209	2	1	NaN	3269869.0004017	NaN	3269869.9838204	3269870.50037126
54	18	0	0	90	36.1581920903955	36.241610738255	0	0	1	5	3	NaN	1	5	0.231494007595073	0	1	NaN	86	2	23	2	110	210	310	NaN	510	1.25720738340169	2	0	NaN	3269871.3173309	NaN	3269872.3007161	3269872.81726512
54	18	0	0	90	36.1581920903955	36.241610738255	16	0.533410495817661	2	8	1	NaN	2	5	0.231494007595073	0	1	NaN	87	2	24	2	120	220	320	NaN	520	0.346192880999297	2	1	NaN	3269874.8843363	NaN	3269875.8677517	3269876.38427732
54	18	0	0	90	36.1581920903955	36.241610738255	14	0.466734183840454	2	10	6	NaN	2	3	0.231494007595073	0	1	NaN	88	2	25	2	120	220	320	NaN	520	0.6740318457596	2	1	NaN	3269878.0846621	NaN	3269879.06805	3269879.58460085
54	18	0	0	90	36.1581920903955	36.241610738255	17	0.566748651806265	2	2	5	NaN	1	3	0.231494007595073	0	1	NaN	89	2	26	2	120	220	320	NaN	520	1.03969668922946	1	1	NaN	3269882.5350671	NaN	3269883.5185003	3269884.03504041
54	18	0	0	90	36.1581920903955	36.241610738255	13	0.43339602785185	2	1	3	NaN	1	5	0.231494007595073	0	1	NaN	90	2	27	2	120	220	320	NaN	520	0.583308535162359	2	0	NaN	3269886.3354442	NaN	3269887.3188578	3269887.83541327
54	18	0	0	90	36.1581920903955	36.241610738255	17	0.566748651806265	2	3	5	NaN	1	4	0.231494007595073	0	1	NaN	91	2	28	2	120	220	320	NaN	520	0.0103904353454709	1	1	NaN	3269889.2357514	NaN	3269890.2191639	3269890.73569686
54	18	0	0	90	36.1581920903955	36.241610738255	0	0	1	2	4	NaN	1	3	0.231494007595073	0	1	NaN	92	2	29	2	110	210	310	NaN	510	0.50159858353436	2	0	NaN	3269891.5693242	NaN	3269892.552704	3269893.06925832
54	18	0	0	90	36.1581920903955	36.241610738255	14	0.466734183840454	2	4	3	NaN	1	4	0.231494007595073	0	1	NaN	93	2	30	2	120	220	320	NaN	520	0.0103747863322496	2	0	NaN	3269894.3862475	NaN	3269895.3696767	3269895.88620761
54	18	0	0	90	36.1581920903955	36.241610738255	23	0.766777587737888	2	9	1	NaN	2	5	0.231494007595073	0	1	NaN	94	2	31	2	120	220	320	NaN	520	0.0104192323051393	2	1	NaN	3269896.8366303	NaN	3269897.8199125	3269898.33643357
54	18	0	0	90	36.1581920903955	36.241610738255	12	0.400057871863246	2	4	5	NaN	1	3	0.231494007595073	0	1	NaN	95	2	32	2	120	220	320	NaN	520	0.0103744864463806	1	1	NaN	3269899.1534178	NaN	3269900.1368168	3269900.65334421
54	18	0	0	90	36.1581920903955	36.241610738255	19	0.633424963783473	2	10	6	NaN	2	3	0.231494007595073	0	1	NaN	96	2	33	2	120	220	320	NaN	520	0.0104053835384548	2	1	NaN	3269901.4701629	NaN	3269902.4536815	3269902.97024242
54	18	0	0	90	36.1581920903955	36.241610738255	10	0.333381559886038	2	5	3	NaN	1	5	0.231494007595073	0	1	NaN	97	2	34	2	120	220	320	NaN	520	0.0104066831991076	1	1	NaN	3269903.787109	NaN	3269904.7705726	3269905.28712752
54	18	0	0	90	36.1581920903955	36.241610738255	18	0.600086807794869	2	11	5	NaN	2	4	0.231494007595073	0	1	NaN	98	2	35	2	120	220	320	NaN	520	0.110450732056051	2	1	NaN	3269906.1040714	NaN	3269907.0874663	3269907.60401987
54	18	0	0	90	36.1581920903955	36.241610738255	25	0.833453899715096	2	7	3	NaN	2	4	0.231494007595073	0	1	NaN	99	2	36	2	120	220	320	NaN	520	1.52583933528513	2	1	NaN	3269908.5209824	NaN	3269909.5043715	3269910.02092326
54	18	0	0	90	36.1581920903955	36.241610738255	11	0.366719715874642	2	2	3	NaN	1	3	0.231494007595073	0	1	NaN	100	2	37	2	120	220	320	NaN	520	0.0103935352526605	1	1	NaN	3269912.3546839	NaN	3269913.338099	3269913.85464056
54	18	0	0	90	36.1581920903955	36.241610738255	17	0.566748651806265	2	12	2	NaN	2	4	0.231494007595073	0	1	NaN	101	2	38	2	120	220	320	NaN	520	0.0104219350032508	2	1	NaN	3269914.8882672	NaN	3269915.8716378	3269916.38821526
54	18	0	0	90	36.1581920903955	36.241610738255	11	0.366719715874642	2	3	2	NaN	1	5	0.231494007595073	0	1	NaN	102	2	39	2	120	220	320	NaN	520	0.0103647378273308	1	1	NaN	3269917.2051657	NaN	3269918.1885509	3269918.70511596
54	18	0	0	90	36.1581920903955	36.241610738255	24	0.800115743726492	2	3	5	NaN	1	4	0.231494007595073	0	1	NaN	103	2	40	2	120	220	320	NaN	520	0.0103757865726948	1	1	NaN	3269919.5386833	NaN	3269920.5221198	3269921.03867021
54	18	0	0	90	36.1581920903955	36.241610738255	19	0.633424963783473	2	2	4	NaN	1	4	0.231494007595073	0	1	NaN	104	2	41	2	120	220	320	NaN	520	0.0103738862089813	1	1	NaN	3269921.8722366	NaN	3269922.8556714	3269923.37224061
54	18	0	0	90	36.1581920903955	36.241610738255	9	0.300043403897435	2	5	5	NaN	1	3	0.231494007595073	0	1	NaN	105	2	42	2	120	220	320	NaN	520	0.761717183515429	1	1	NaN	3269924.1891608	NaN	3269925.1725824	3269925.68913632
54	18	0	0	90	36.1581920903955	36.241610738255	18	0.600086807794869	2	6	5	NaN	1	5	0.231494007595073	0	1	NaN	106	2	43	2	120	220	320	NaN	520	0.125849335454404	2	0	NaN	3269927.2728138	NaN	3269928.2562243	3269928.77277066
54	18	0	0	90	36.1581920903955	36.241610738255	11	0.366719715874642	2	2	3	NaN	1	5	0.231494007595073	0	1	NaN	107	2	44	2	120	220	320	NaN	520	0.144391435198486	2	0	NaN	3269930.2064542	NaN	3269931.1898621	3269931.70638816
54	18	0	0	90	36.1581920903955	36.241610738255	12	0.400057871863246	2	9	4	NaN	2	5	0.231494007595073	0	1	NaN	108	2	45	2	120	220	320	NaN	520	0.010407283436507	2	1	NaN	3269932.673335	NaN	3269933.6567442	3269934.17329622
54	18	0	0	90	36.1581920903955	36.241610738255	24	0.800115743726492	2	10	4	NaN	2	5	0.231494007595073	0	1	NaN	109	2	46	2	120	220	320	NaN	520	0.0103900348767638	2	1	NaN	3269935.0069041	NaN	3269935.9902804	3269936.50685907
54	18	0	0	90	36.1581920903955	36.241610738255	9	0.300043403897435	2	4	1	NaN	1	5	0.231494007595073	0	1	NaN	110	2	47	2	120	220	320	NaN	520	0.0104128834791481	1	1	NaN	3269937.3238324	NaN	3269938.3072762	3269938.82374792
54	18	0	0	90	36.1581920903955	36.241610738255	8	0.266705247908831	2	11	2	NaN	2	5	0.231494007595073	0	1	NaN	111	2	48	2	120	220	320	NaN	520	0.010378286242485	2	1	NaN	3269939.657374	NaN	3269940.6407601	3269941.15732391
54	18	0	0	90	36.1581920903955	36.241610738255	24	0.800115743726492	2	5	3	NaN	1	5	0.231494007595073	0	1	NaN	112	2	49	2	120	220	320	NaN	520	0.0104058831930161	1	1	NaN	3269941.9742638	NaN	3269942.9576605	3269943.47420392
54	18	0	0	90	36.1581920903955	36.241610738255	11	0.366719715874642	2	3	3	NaN	1	3	0.231494007595073	0	1	NaN	113	2	50	2	120	220	320	NaN	520	0.59503063512966	1	1	NaN	3269944.307826	NaN	3269945.2911924	3269945.80777276
54	18	0	0	90	36.1581920903955	36.241610738255	0	0	1	6	4	NaN	1	3	0.231494007595073	0	1	NaN	114	2	51	2	110	210	310	NaN	510	0.294833983294666	1	1	NaN	3269947.2081086	NaN	3269948.1915083	3269948.70805502
54	18	0	0	90	36.1581920903955	36.241610738255	8	0.266705247908831	2	8	2	NaN	2	5	0.231494007595073	0	1	NaN	115	2	52	2	120	220	320	NaN	520	0.0103925350122154	2	1	NaN	3269949.8250348	NaN	3269950.8084205	3269951.32498387
54	18	0	0	90	36.1581920903955	36.241610738255	8	0.266705247908831	2	7	4	NaN	2	4	0.231494007595073	0	1	NaN	116	2	53	2	120	220	320	NaN	520	0.464696083217859	2	1	NaN	3269952.14182	NaN	3269953.1253383	3269953.64187272
54	18	0	0	90	36.1581920903955	36.241610738255	25	0.833453899715096	2	8	3	NaN	2	3	0.231494007595073	0	1	NaN	117	2	54	2	120	220	320	NaN	520	5.0490517350845	2	1	NaN	3269955.3255516	NaN	3269956.308979	3269956.82552166
54	18	0	0	90	36.1581920903955	36.241610738255	7	0.233367091920227	2	11	5	NaN	2	4	0.231494007595073	0	1	NaN	118	2	55	2	120	220	320	NaN	520	0.917627881281078	2	1	NaN	3269963.1929762	NaN	3269964.1764153	3269964.69295292
54	18	0	0	90	36.1581920903955	36.241610738255	19	0.633424963783473	2	11	5	NaN	2	5	0.231494007595073	0	1	NaN	119	2	56	2	120	220	320	NaN	520	0.0103894355706871	2	1	NaN	3269966.4266576	NaN	3269967.4100778	3269967.92661516
54	18	0	0	90	36.1581920903955	36.241610738255	18	0.600086807794869	2	5	4	NaN	1	4	0.231494007595073	0	1	NaN	120	2	57	2	120	220	320	NaN	520	0.655064234975725	2	0	NaN	3269968.7435624	NaN	3269969.7269411	3269970.24350946
54	18	0	0	90	36.1581920903955	36.241610738255	25	0.833453899715096	2	5	1	NaN	1	3	0.231494007595073	0	1	NaN	121	2	58	2	120	220	320	NaN	520	0.616459083743393	2	0	NaN	3269971.7104065	NaN	3269972.6939266	3269973.21047032
54	18	0	0	90	36.1581920903955	36.241610738255	10	0.333381559886038	2	12	3	NaN	2	4	0.231494007595073	0	1	NaN	122	2	59	2	120	220	320	NaN	520	1.14636994013563	2	1	NaN	3269974.6441126	NaN	3269975.6275197	3269976.14409046
54	18	0	0	90	36.1581920903955	36.241610738255	14	0.466734183840454	2	2	1	NaN	1	4	0.231494007595073	0	1	NaN	123	2	60	2	120	220	320	NaN	520	0.959391835145652	2	0	NaN	3269978.1111304	NaN	3269979.0945398	3269979.61109487
54	18	0	0	90	36.1581920903955	36.241610738255	0	0	1	2	4	NaN	1	4	0.231494007595073	0	1	NaN	124	2	61	2	110	210	310	NaN	510	1.13260513497517	1	1	NaN	3269981.3781035	NaN	3269982.3615336	3269982.87808606
54	18	0	0	90	36.1581920903955	36.241610738255	12	0.400057871863246	2	7	6	NaN	2	3	0.231494007595073	0	1	NaN	125	2	62	2	120	220	320	NaN	520	1.597339135129	2	1	NaN	3269985.3452008	NaN	3269986.3285944	3269986.84513786
54	18	0	0	90	36.1581920903955	36.241610738255	14	0.466734183840454	2	1	2	NaN	1	5	0.231494007595073	0	1	NaN	126	2	63	2	120	220	320	NaN	520	3.89628598326817	2	0	NaN	3269989.2622398	NaN	3269990.2456426	3269990.76218662
54	18	0	0	90	36.1581920903955	36.241610738255	18	0.600086807794869	2	9	3	NaN	2	5	0.231494007595073	0	1	NaN	127	3	1	2	120	220	320	NaN	520	0.0103894351050258	1	0	NaN	3269997.5797386	NaN	3269998.5631217	3269999.07967726
54	18	0	0	90	36.1581920903955	36.241610738255	21	0.70010127576068	2	3	2	NaN	1	4	0.231494007595073	0	1	NaN	128	3	2	2	120	220	320	NaN	520	0.877996996976435	1	1	NaN	3269999.8966332	NaN	3270000.8800077	3270001.3965704
54	18	0	0	90	36.1581920903955	36.241610738255	17	0.566748651806265	2	8	6	NaN	2	5	0.231494007595073	0	1	NaN	129	3	3	2	120	220	320	NaN	520	0.0104100834578276	1	0	NaN	3270003.0802618	NaN	3270004.0636655	3270004.58021152
54	18	0	0	90	36.1581920903955	36.241610738255	10	0.333381559886038	2	9	5	NaN	2	3	0.231494007595073	0	1	NaN	130	3	4	2	120	220	320	NaN	520	0.0416286354884505	2	1	NaN	3270005.3971636	NaN	3270006.380571	3270006.89710826
54	18	0	0	90	36.1581920903955	36.241610738255	0	0	1	9	6	NaN	2	4	0.231494007595073	0	1	NaN	131	3	5	2	110	210	310	NaN	510	0.915415283758193	2	1	NaN	3270007.7474053	NaN	3270008.7308182	3270009.24733232
54	18	0	0	90	36.1581920903955	36.241610738255	7	0.233367091920227	2	1	1	NaN	1	5	0.231494007595073	0	1	NaN	132	3	6	2	120	220	320	NaN	520	0.0103638377040625	1	1	NaN	3270010.9810598	NaN	3270011.9644378	3270012.48099436
54	18	0	0	90	36.1581920903955	36.241610738255	20	0.666763119772077	2	4	3	NaN	1	4	0.231494007595073	0	1	NaN	133	3	7	2	120	220	320	NaN	520	0.0103906351141632	1	1	NaN	3270013.314617	NaN	3270014.297895	3270014.81455636
54	18	0	0	90	36.1581920903955	36.241610738255	25	0.833453899715096	2	4	5	NaN	1	5	0.231494007595073	0	1	NaN	134	3	8	2	120	220	320	NaN	520	0.0103919352404773	1	1	NaN	3270015.6315205	NaN	3270016.6149036	3270017.13144766
54	18	0	0	90	36.1581920903955	36.241610738255	23	0.766777587737888	2	11	5	NaN	2	4	0.231494007595073	0	1	NaN	135	3	9	2	120	220	320	NaN	520	0.178132935427129	2	1	NaN	3270017.9484312	NaN	3270018.9317956	3270019.44834436
54	18	0	0	90	36.1581920903955	36.241610738255	11	0.366719715874642	2	1	2	NaN	1	4	0.231494007595073	0	1	NaN	136	3	10	2	120	220	320	NaN	520	0.0103904353454709	1	1	NaN	3270020.4319679	NaN	3270021.4153796	3270021.93191926
54	18	0	0	90	36.1581920903955	36.241610738255	13	0.43339602785185	2	2	6	NaN	1	5	0.231494007595073	0	1	NaN	137	3	11	2	120	220	320	NaN	520	0.697653983719647	1	1	NaN	3270022.7488473	NaN	3270023.7322617	3270024.24881112
54	18	0	0	90	36.1581920903955	36.241610738255	23	0.766777587737888	2	8	3	NaN	2	4	0.231494007595073	0	1	NaN	138	3	12	2	120	220	320	NaN	520	5.28917738609016	2	1	NaN	3270025.7658254	NaN	3270026.7492214	3270027.26578181
54	18	0	0	90	36.1581920903955	36.241610738255	12	0.400057871863246	2	1	4	NaN	1	5	0.231494007595073	0	1	NaN	139	3	13	2	120	220	320	NaN	520	0.648033883422613	2	0	NaN	3270033.3665755	NaN	3270034.3499767	3270034.86652082
54	18	0	0	90	36.1581920903955	36.241610738255	7	0.233367091920227	2	1	3	NaN	1	5	0.231494007595073	0	1	NaN	140	3	14	2	120	220	320	NaN	520	0.721092234831303	2	0	NaN	3270036.3335317	NaN	3270037.3169177	3270037.83348147
54	18	0	0	90	36.1581920903955	36.241610738255	12	0.400057871863246	2	1	1	NaN	1	3	0.231494007595073	0	1	NaN	141	3	15	2	120	220	320	NaN	520	0.687440091744065	1	1	NaN	3270039.3671611	NaN	3270040.350544	3270040.86711071
54	18	0	0	90	36.1581920903955	36.241610738255	23	0.766777587737888	2	9	6	NaN	2	3	0.231494007595073	0	1	NaN	142	3	16	2	120	220	320	NaN	520	2.35130373528227	2	1	NaN	3270042.3674582	NaN	3270043.3508742	3270043.86740586
54	18	0	0	90	36.1581920903955	36.241610738255	24	0.800115743726492	2	4	4	NaN	1	5	0.231494007595073	0	1	NaN	143	3	17	2	120	220	320	NaN	520	0.460435883607715	2	0	NaN	3270047.0345915	NaN	3270048.0179785	3270048.53454422
54	18	0	0	90	36.1581920903955	36.241610738255	6	0.200028935931623	2	5	1	NaN	1	3	0.231494007595073	0	1	NaN	144	3	18	2	120	220	320	NaN	520	0.0104116834700108	2	0	NaN	3270049.8015247	NaN	3270050.7849107	3270051.30146752
54	18	0	0	90	36.1581920903955	36.241610738255	0	0	1	10	4	NaN	2	3	0.231494007595073	0	1	NaN	145	3	19	2	110	210	310	NaN	510	0.191971735097468	1	0	NaN	3270052.1350142	NaN	3270053.1185413	3270053.63503816
54	18	0	0	90	36.1581920903955	36.241610738255	9	0.300043403897435	2	6	3	NaN	1	3	0.231494007595073	0	1	NaN	146	3	20	2	120	220	320	NaN	520	0.0103902351111174	1	1	NaN	3270054.6353295	NaN	3270055.6188167	3270056.13527987
54	18	0	0	90	36.1581920903955	36.241610738255	10	0.333381559886038	2	9	1	NaN	2	3	0.231494007595073	0	1	NaN	147	3	21	2	120	220	320	NaN	520	0.0104068834334612	2	1	NaN	3270056.9522456	NaN	3270057.9356555	3270058.45217482
54	18	0	0	90	36.1581920903955	36.241610738255	6	0.200028935931623	2	6	4	NaN	1	4	0.231494007595073	0	1	NaN	148	3	22	2	120	220	320	NaN	520	0.360999835189432	1	1	NaN	3270059.2857889	NaN	3270060.2692065	3270060.78573126
54	18	0	0	90	36.1581920903955	36.241610738255	10	0.333381559886038	2	8	4	NaN	2	4	0.231494007595073	0	1	NaN	149	3	23	2	120	220	320	NaN	520	0.0440160352736712	2	1	NaN	3270062.4027841	NaN	3270063.3861734	3270063.90270396
54	18	0	0	90	36.1581920903955	36.241610738255	17	0.566748651806265	2	3	1	NaN	1	4	0.231494007595073	0	1	NaN	150	3	24	2	120	220	320	NaN	520	0.531157683581114	2	0	NaN	3270065.2196814	NaN	3270066.2031168	3270066.71965072
54	18	0	0	90	36.1581920903955	36.241610738255	17	0.566748651806265	2	11	6	NaN	2	3	0.231494007595073	0	1	NaN	151	3	25	2	120	220	320	NaN	520	0.120809383690357	2	1	NaN	3270068.0699826	NaN	3270069.0533816	3270069.56993262
54	18	0	0	90	36.1581920903955	36.241610738255	14	0.466734183840454	2	8	6	NaN	2	4	0.231494007595073	0	1	NaN	152	3	26	2	120	220	320	NaN	520	0.23107504285872	2	1	NaN	3270070.5035481	NaN	3270071.4869804	3270072.00351246
54	18	0	0	90	36.1581920903955	36.241610738255	24	0.800115743726492	2	5	5	NaN	1	3	0.231494007595073	0	1	NaN	153	3	27	2	120	220	320	NaN	520	0.224908183328807	2	0	NaN	3270073.0538068	NaN	3270074.0372035	3270074.55375002
54	18	0	0	90	36.1581920903955	36.241610738255	18	0.600086807794869	2	1	5	NaN	1	4	0.231494007595073	0	1	NaN	154	3	28	2	120	220	320	NaN	520	0.683481383603066	2	0	NaN	3270075.5874804	NaN	3270076.5707923	3270077.08733662
54	18	0	0	90	36.1581920903955	36.241610738255	16	0.533410495817661	2	11	6	NaN	2	3	0.231494007595073	0	1	NaN	155	3	29	2	120	220	320	NaN	520	0.395149132236838	2	1	NaN	3270078.5876904	NaN	3270079.5710916	3270080.08762957
54	18	0	0	90	36.1581920903955	36.241610738255	23	0.766777587737888	2	3	5	NaN	1	5	0.231494007595073	0	1	NaN	156	3	30	2	120	220	320	NaN	520	0.0103915347717702	2	0	NaN	3270081.2878177	NaN	3270082.2713838	3270082.78789727
54	18	0	0	90	36.1581920903955	36.241610738255	22	0.733439431749284	2	11	3	NaN	2	3	0.231494007595073	0	1	NaN	157	3	31	2	120	220	320	NaN	520	0.393659781198949	2	1	NaN	3270083.6215162	NaN	3270084.6049141	3270085.12145022
54	18	0	0	90	36.1581920903955	36.241610738255	16	0.533410495817661	2	7	6	NaN	2	3	0.231494007595073	0	1	NaN	158	3	32	2	120	220	320	NaN	520	1.22123673558235	2	1	NaN	3270086.3217921	NaN	3270087.3051714	3270087.82171886
54	18	0	0	90	36.1581920903955	36.241610738255	13	0.43339602785185	2	6	1	NaN	1	3	0.231494007595073	0	1	NaN	159	3	33	2	120	220	320	NaN	520	0.0715238349512219	1	1	NaN	3270089.8554619	NaN	3270090.8388598	3270091.35540876
54	18	0	0	90	36.1581920903955	36.241610738255	23	0.766777587737888	2	7	6	NaN	2	3	0.231494007595073	0	1	NaN	160	3	34	2	120	220	320	NaN	520	0.220439486671239	2	1	NaN	3270092.5222664	NaN	3270093.5057944	3270094.02233791
54	18	0	0	90	36.1581920903955	36.241610738255	19	0.633424963783473	2	3	5	NaN	1	4	0.231494007595073	0	1	NaN	161	3	35	2	120	220	320	NaN	520	0.0103917350061238	1	1	NaN	3270095.0559639	NaN	3270096.0393649	3270096.55592036
54	18	0	0	90	36.1581920903955	36.241610738255	21	0.70010127576068	2	11	6	NaN	2	4	0.231494007595073	0	1	NaN	162	3	36	2	120	220	320	NaN	520	0.0104065835475922	2	1	NaN	3270097.372736	NaN	3270098.3562774	3270098.87280882
54	18	0	0	90	36.1581920903955	36.241610738255	6	0.200028935931623	2	4	4	NaN	1	4	0.231494007595073	0	1	NaN	163	3	37	2	120	220	320	NaN	520	0.900398383382708	2	0	NaN	3270099.7064326	NaN	3270100.6898266	3270101.20637212
54	18	0	0	90	36.1581920903955	36.241610738255	20	0.666763119772077	2	10	2	NaN	2	5	0.231494007595073	0	1	NaN	164	3	38	2	120	220	320	NaN	520	0.0104864831082523	2	1	NaN	3270103.9401512	NaN	3270104.92362	3270105.44012202
54	18	0	0	90	36.1581920903955	36.241610738255	8	0.266705247908831	2	11	4	NaN	2	4	0.231494007595073	0	1	NaN	165	3	39	2	120	220	320	NaN	520	0.0130138350650668	2	1	NaN	3270106.2737336	NaN	3270107.2571371	3270107.77369006
54	18	0	0	90	36.1581920903955	36.241610738255	14	0.466734183840454	2	11	2	NaN	2	4	0.231494007595073	0	1	NaN	166	3	40	2	120	220	320	NaN	520	0.120086186099797	2	1	NaN	3270108.5905091	NaN	3270109.5741062	3270110.09058211
54	18	0	0	90	36.1581920903955	36.241610738255	14	0.466734183840454	2	9	4	NaN	2	5	0.231494007595073	0	1	NaN	167	3	41	2	120	220	320	NaN	520	0.0104058836586773	2	1	NaN	3270111.0242492	NaN	3270112.0076033	3270112.52414932
54	18	0	0	90	36.1581920903955	36.241610738255	8	0.266705247908831	2	3	6	NaN	1	3	0.231494007595073	0	1	NaN	168	3	42	2	120	220	320	NaN	520	0.0103886355645955	2	0	NaN	3270113.3411009	NaN	3270114.3245023	3270114.84104526
54	18	0	0	90	36.1581920903955	36.241610738255	19	0.633424963783473	2	1	3	NaN	1	5	0.231494007595073	0	1	NaN	169	3	43	2	120	220	320	NaN	520	0.0201755836606026	1	1	NaN	3270115.674655	NaN	3270116.6580565	3270117.17460892
54	18	0	0	90	36.1581920903955	36.241610738255	11	0.366719715874642	2	9	5	NaN	2	3	0.231494007595073	0	1	NaN	170	3	44	2	120	220	320	NaN	520	0.265255883801728	2	1	NaN	3270118.1415706	NaN	3270119.1249643	3270119.64151482
54	18	0	0	90	36.1581920903955	36.241610738255	11	0.366719715874642	2	5	6	NaN	1	4	0.231494007595073	0	1	NaN	171	3	45	2	120	220	320	NaN	520	3.56086078332737	2	0	NaN	3270121.1418463	NaN	3270122.1252608	3270122.64181002
54	18	0	0	90	36.1581920903955	36.241610738255	8	0.266705247908831	2	4	1	NaN	1	5	0.231494007595073	0	1	NaN	172	3	46	2	120	220	320	NaN	520	2.04575163498521	2	0	NaN	3270127.0089773	NaN	3270127.9925305	3270128.50904797
54	18	0	0	90	36.1581920903955	36.241610738255	7	0.233367091920227	2	4	2	NaN	1	3	0.231494007595073	0	1	NaN	173	3	47	2	120	220	320	NaN	520	0.0104061835445464	1	1	NaN	3270131.3761846	NaN	3270132.3596244	3270132.87614282
54	18	0	0	90	36.1581920903955	36.241610738255	10	0.333381559886038	2	11	1	NaN	2	5	0.231494007595073	0	1	NaN	174	3	48	2	120	220	320	NaN	520	1.21687668375671	2	1	NaN	3270133.9097735	NaN	3270134.8931759	3270135.40973642
54	18	0	0	90	36.1581920903955	36.241610738255	17	0.566748651806265	2	7	2	NaN	2	3	0.231494007595073	0	1	NaN	175	3	49	2	120	220	320	NaN	520	0.0104060834273696	2	1	NaN	3270137.4434606	NaN	3270138.4268706	3270138.94341262
54	18	0	0	90	36.1581920903955	36.241610738255	10	0.333381559886038	2	2	2	NaN	1	3	0.231494007595073	0	1	NaN	176	3	50	2	120	220	320	NaN	520	0.0104033835232258	1	1	NaN	3270139.7770239	NaN	3270140.760427	3270141.27697492
54	18	0	0	90	36.1581920903955	36.241610738255	8	0.266705247908831	2	10	2	NaN	2	4	0.231494007595073	0	1	NaN	177	3	51	2	120	220	320	NaN	520	0.649168883450329	2	1	NaN	3270142.0939133	NaN	3270143.0773218	3270143.59386902
54	18	0	0	90	36.1581920903955	36.241610738255	20	0.666763119772077	2	11	5	NaN	2	4	0.231494007595073	0	1	NaN	178	3	52	2	120	220	320	NaN	520	0.153863683342934	2	1	NaN	3270145.0608992	NaN	3270146.0443141	3270146.56082642
54	18	0	0	90	36.1581920903955	36.241610738255	23	0.766777587737888	2	12	2	NaN	2	3	0.231494007595073	0	1	NaN	179	3	53	2	120	220	320	NaN	520	0.431209883652627	1	0	NaN	3270147.527789	NaN	3270148.5111761	3270149.02773312
54	18	0	0	90	36.1581920903955	36.241610738255	19	0.633424963783473	2	3	2	NaN	1	4	0.231494007595073	0	1	NaN	180	3	54	2	120	220	320	NaN	520	0.081465934868902	1	1	NaN	3270150.2613855	NaN	3270151.2448274	3270151.76133686
54	18	0	0	90	36.1581920903955	36.241610738255	18	0.600086807794869	2	9	4	NaN	2	5	0.231494007595073	0	1	NaN	181	3	55	2	120	220	320	NaN	520	0.0104047833010554	2	1	NaN	3270152.6449002	NaN	3270153.6283725	3270154.14490602
54	18	0	0	90	36.1581920903955	36.241610738255	19	0.633424963783473	2	4	6	NaN	1	5	0.231494007595073	0	1	NaN	182	3	56	2	120	220	320	NaN	520	0.0122591834515333	1	1	NaN	3270154.9785262	NaN	3270155.9619402	3270156.47846732
54	18	0	0	90	36.1581920903955	36.241610738255	9	0.300043403897435	2	3	2	NaN	1	5	0.231494007595073	0	1	NaN	183	3	57	2	120	220	320	NaN	520	0.0104045835323632	1	1	NaN	3270157.3120662	NaN	3270158.2954758	3270158.81203402
54	18	0	0	90	36.1581920903955	36.241610738255	12	0.400057871863246	2	3	1	NaN	1	5	0.231494007595073	0	1	NaN	184	3	58	2	120	220	320	NaN	520	0.0812156866304576	1	1	NaN	3270159.645644	NaN	3270160.6290408	3270161.14559771
54	18	0	0	90	36.1581920903955	36.241610738255	6	0.200028935931623	2	3	2	NaN	1	4	0.231494007595073	0	1	NaN	185	3	59	2	120	220	320	NaN	520	0.0103555372916162	1	1	NaN	3270162.0459038	NaN	3270163.029288	3270163.54583166
54	18	0	0	90	36.1581920903955	36.241610738255	17	0.566748651806265	2	4	4	NaN	1	3	0.231494007595073	0	1	NaN	186	3	60	2	120	220	320	NaN	520	0.0103931352496147	1	1	NaN	3270164.379424	NaN	3270165.3628383	3270165.87939286
54	18	0	0	90	36.1581920903955	36.241610738255	7	0.233367091920227	2	3	4	NaN	1	5	0.231494007595073	0	1	NaN	187	3	61	2	120	220	320	NaN	520	0.0867024348117411	1	1	NaN	3270166.6963724	NaN	3270167.6797718	3270168.19627806
54	18	0	0	90	36.1581920903955	36.241610738255	25	0.833453899715096	2	11	4	NaN	2	4	0.231494007595073	0	1	NaN	188	3	62	2	120	220	320	NaN	520	0.0103413462638855	2	1	NaN	3270169.0965783	NaN	3270170.0800095	3270170.59653375
54	18	0	0	90	36.1581920903955	36.241610738255	16	0.533410495817661	2	1	3	NaN	1	3	0.231494007595073	0	1	NaN	189	3	63	2	120	220	320	NaN	520	0.0103903352282941	2	0	NaN	3270171.4133401	NaN	3270172.396866	3270172.91340906
54	18	0	0	90	36.1581920903955	36.241610738255	21	0.70010127576068	2	12	4	NaN	2	3	0.231494007595073	0	1	NaN	190	4	1	2	120	220	320	NaN	520	0.180314386729151	2	1	NaN	3270234.8030288	NaN	3270235.7864374	3270236.30297381
54	18	0	0	90	36.1581920903955	36.241610738255	16	0.533410495817661	2	5	5	NaN	1	4	0.231494007595073	0	1	NaN	191	4	2	2	120	220	320	NaN	520	0.040412035305053	2	0	NaN	3270237.286572	NaN	3270238.2699874	3270238.78655706
54	18	0	0	90	36.1581920903955	36.241610738255	16	0.533410495817661	2	12	6	NaN	2	3	0.231494007595073	0	1	NaN	192	4	3	2	120	220	320	NaN	520	0.0104076834395528	1	0	NaN	3270239.6368375	NaN	3270240.6202296	3270241.13677622
54	18	0	0	90	36.1581920903955	36.241610738255	14	0.466734183840454	2	5	1	NaN	1	4	0.231494007595073	0	1	NaN	193	4	4	2	120	220	320	NaN	520	0.108785234857351	1	1	NaN	3270241.9703949	NaN	3270242.9537888	3270243.47035056
54	18	0	0	90	36.1581920903955	36.241610738255	18	0.600086807794869	2	10	5	NaN	2	3	0.231494007595073	0	1	NaN	194	4	5	2	120	220	320	NaN	520	0.019685635343194	1	0	NaN	3270244.3871529	NaN	3270245.3707453	3270245.88725116
54	18	0	0	90	36.1581920903955	36.241610738255	6	0.200028935931623	2	4	2	NaN	1	4	0.231494007595073	0	1	NaN	195	4	6	2	120	220	320	NaN	520	0.010377686470747	1	1	NaN	3270246.7208626	NaN	3270247.7042842	3270248.22081661
54	18	0	0	90	36.1581920903955	36.241610738255	17	0.566748651806265	2	6	6	NaN	1	5	0.231494007595073	0	1	NaN	196	4	7	2	120	220	320	NaN	520	0.183889083564281	1	1	NaN	3270249.6711682	NaN	3270250.6545754	3270251.17110102
54	18	0	0	90	36.1581920903955	36.241610738255	17	0.566748651806265	2	5	6	NaN	1	5	0.231494007595073	0	1	NaN	197	4	8	2	120	220	320	NaN	520	0.571574334986508	1	1	NaN	3270252.1713946	NaN	3270253.154773	3270253.67134677
54	18	0	0	90	36.1581920903955	36.241610738255	17	0.566748651806265	2	8	5	NaN	2	5	0.231494007595073	0	1	NaN	198	4	9	2	120	220	320	NaN	520	0.0799859859980643	2	1	NaN	3270255.0550152	NaN	3270256.0384207	3270256.55496711
54	18	0	0	90	36.1581920903955	36.241610738255	17	0.566748651806265	2	12	4	NaN	2	4	0.231494007595073	0	1	NaN	199	4	10	2	120	220	320	NaN	520	0.679897346068174	2	1	NaN	3270257.4552327	NaN	3270258.4386025	3270258.95520825
54	18	0	0	90	36.1581920903955	36.241610738255	11	0.366719715874642	2	6	6	NaN	1	4	0.231494007595073	0	1	NaN	200	4	11	2	120	220	320	NaN	520	0.0401567835360765	1	1	NaN	3270260.4387318	NaN	3270261.4222717	3270261.93882072
54	18	0	0	90	36.1581920903955	36.241610738255	9	0.300043403897435	2	11	6	NaN	2	3	0.231494007595073	0	1	NaN	201	4	12	2	120	220	320	NaN	520	1.76181113533676	1	0	NaN	3270262.788981	NaN	3270263.7725093	3270264.28905626
54	18	0	0	90	36.1581920903955	36.241610738255	23	0.766777587737888	2	2	4	NaN	1	4	0.231494007595073	0	1	NaN	202	4	13	2	120	220	320	NaN	520	1.61422673519701	2	0	NaN	3270266.8728541	NaN	3270267.8562402	3270268.37279206
54	18	0	0	90	36.1581920903955	36.241610738255	12	0.400057871863246	2	8	1	NaN	2	3	0.231494007595073	0	1	NaN	203	4	14	2	120	220	320	NaN	520	0.520532935392112	1	0	NaN	3270270.8066639	NaN	3270271.7899691	3270272.30651116
54	18	0	0	90	36.1581920903955	36.241610738255	24	0.800115743726492	2	2	3	NaN	1	5	0.231494007595073	0	1	NaN	204	4	15	2	120	220	320	NaN	520	0.0103932353667915	1	1	NaN	3270274.0402184	NaN	3270275.0236192	3270275.54016506
54	18	0	0	90	36.1581920903955	36.241610738255	6	0.200028935931623	2	9	2	NaN	2	3	0.231494007595073	0	1	NaN	205	4	16	2	120	220	320	NaN	520	0.985108835157007	2	1	NaN	3270276.373776	NaN	3270277.3571517	3270277.87372156
54	18	0	0	90	36.1581920903955	36.241610738255	22	0.733439431749284	2	10	5	NaN	2	3	0.231494007595073	0	1	NaN	206	4	17	2	120	220	320	NaN	520	0.100973126944155	2	1	NaN	3270279.6741068	NaN	3270280.6574946	3270281.17404967
54	18	0	0	90	36.1581920903955	36.241610738255	17	0.566748651806265	2	4	3	NaN	1	4	0.231494007595073	0	1	NaN	207	4	18	2	120	220	320	NaN	520	0.0104076834395528	1	1	NaN	3270282.090989	NaN	3270283.0743771	3270283.59094262
54	18	0	0	90	36.1581920903955	36.241610738255	25	0.833453899715096	2	9	2	NaN	2	3	0.231494007595073	0	1	NaN	208	4	19	2	120	220	320	NaN	520	0.974521283525974	2	1	NaN	3270284.4245586	NaN	3270285.4079644	3270285.92450452
54	18	0	0	90	36.1581920903955	36.241610738255	17	0.566748651806265	2	1	4	NaN	1	4	0.231494007595073	0	1	NaN	209	4	20	2	120	220	320	NaN	520	0.0103874350897968	1	1	NaN	3270287.7082257	NaN	3270288.6916309	3270289.20816976
54	18	0	0	90	36.1581920903955	36.241610738255	7	0.233367091920227	2	2	5	NaN	1	3	0.231494007595073	0	1	NaN	210	4	21	2	120	220	320	NaN	520	0.109966883901507	1	1	NaN	3270290.0249964	NaN	3270291.0086079	3270291.52506172
54	18	0	0	90	36.1581920903955	36.241610738255	20	0.666763119772077	2	11	1	NaN	2	4	0.231494007595073	0	1	NaN	211	4	22	2	120	220	320	NaN	520	1.53816944593564	2	1	NaN	3270292.9087126	NaN	3270293.8921323	3270294.40868815
54	18	0	0	90	36.1581920903955	36.241610738255	15	0.500072339829058	2	11	1	NaN	2	3	0.231494007595073	0	1	NaN	212	4	23	2	120	220	320	NaN	520	0.0104310349561274	2	1	NaN	3270296.7591047	NaN	3270297.7425026	3270298.25906326
54	18	0	0	90	36.1581920903955	36.241610738255	24	0.800115743726492	2	6	6	NaN	1	4	0.231494007595073	0	1	NaN	213	4	24	2	120	220	320	NaN	520	0.0103886350989342	1	1	NaN	3270299.0760048	NaN	3270300.0594157	3270300.57595206
54	18	0	0	90	36.1581920903955	36.241610738255	9	0.300043403897435	2	1	2	NaN	1	5	0.231494007595073	0	1	NaN	214	4	25	2	120	220	320	NaN	520	0.734417845960706	1	1	NaN	3270301.3929017	NaN	3270302.3763305	3270302.89285095
54	18	0	0	90	36.1581920903955	36.241610738255	23	0.766777587737888	2	1	6	NaN	1	5	0.231494007595073	0	1	NaN	215	4	26	2	120	220	320	NaN	520	0.0103889354504645	2	0	NaN	3270304.443198	NaN	3270305.4265911	3270305.94314476
54	18	0	0	90	36.1581920903955	36.241610738255	13	0.43339602785185	2	2	6	NaN	1	3	0.231494007595073	0	1	NaN	216	4	27	2	120	220	320	NaN	520	0.271307183429599	2	0	NaN	3270306.7600953	NaN	3270307.7435169	3270308.26003882
54	18	0	0	90	36.1581920903955	36.241610738255	7	0.233367091920227	2	10	2	NaN	2	3	0.231494007595073	0	1	NaN	217	4	28	2	120	220	320	NaN	520	0.207420083228499	2	1	NaN	3270309.3436934	NaN	3270310.327069	3270310.84362072
54	18	0	0	90	36.1581920903955	36.241610738255	16	0.533410495817661	2	11	6	NaN	2	5	0.231494007595073	0	1	NaN	218	4	29	2	120	220	320	NaN	520	0.0103892353363335	2	1	NaN	3270311.8605939	NaN	3270312.8439895	3270313.36054346
54	18	0	0	90	36.1581920903955	36.241610738255	15	0.500072339829058	2	2	5	NaN	1	5	0.231494007595073	0	1	NaN	219	4	30	2	120	220	320	NaN	520	0.237602635286748	2	0	NaN	3270314.1775312	NaN	3270315.1608979	3270315.67744096
54	18	0	0	90	36.1581920903955	36.241610738255	15	0.500072339829058	2	12	6	NaN	2	4	0.231494007595073	0	1	NaN	220	4	31	2	120	220	320	NaN	520	1.06348328338936	2	1	NaN	3270316.727753	NaN	3270317.711145	3270318.22767832
54	18	0	0	90	36.1581920903955	36.241610738255	20	0.666763119772077	2	9	2	NaN	2	4	0.231494007595073	0	1	NaN	221	4	32	2	120	220	320	NaN	520	0.0876602837815881	2	1	NaN	3270320.1114017	NaN	3270321.0947882	3270321.61134732
54	18	0	0	90	36.1581920903955	36.241610738255	18	0.600086807794869	2	7	4	NaN	2	4	0.231494007595073	0	1	NaN	222	4	33	2	120	220	320	NaN	520	0.919560135342181	1	0	NaN	3270322.5115255	NaN	3270323.4950313	3270324.01159336
54	18	0	0	90	36.1581920903955	36.241610738255	14	0.466734183840454	2	7	4	NaN	2	3	0.231494007595073	0	1	NaN	223	4	34	2	120	220	320	NaN	520	1.32577002979815	1	0	NaN	3270325.7452953	NaN	3270326.7287007	3270327.24522937
54	18	0	0	90	36.1581920903955	36.241610738255	22	0.733439431749284	2	1	5	NaN	1	4	0.231494007595073	0	1	NaN	224	4	35	2	120	220	320	NaN	520	2.06005058344454	2	0	NaN	3270329.3789784	NaN	3270330.3623809	3270330.87892122
54	18	0	0	90	36.1581920903955	36.241610738255	24	0.800115743726492	2	7	4	NaN	2	3	0.231494007595073	0	1	NaN	225	4	36	2	120	220	320	NaN	520	0.884208986535668	2	1	NaN	3270333.762643	NaN	3270334.7461359	3270335.26268781
54	18	0	0	90	36.1581920903955	36.241610738255	18	0.600086807794869	2	3	4	NaN	1	4	0.231494007595073	0	1	NaN	226	4	37	2	120	220	320	NaN	520	0.996393735520542	2	0	NaN	3270336.9629295	NaN	3270337.9464567	3270338.46301196
54	18	0	0	90	36.1581920903955	36.241610738255	12	0.400057871863246	2	7	3	NaN	2	5	0.231494007595073	0	1	NaN	227	4	38	2	120	220	320	NaN	520	1.33561758650467	2	1	NaN	3270340.2633756	NaN	3270341.2467898	3270341.76332541
54	18	0	0	90	36.1581920903955	36.241610738255	15	0.500072339829058	2	1	6	NaN	1	4	0.231494007595073	0	1	NaN	228	4	39	2	120	220	320	NaN	520	2.83723648358136	2	0	NaN	3270343.9137607	NaN	3270344.8971479	3270345.41368232
54	18	0	0	90	36.1581920903955	36.241610738255	21	0.70010127576068	2	5	2	NaN	1	5	0.231494007595073	0	1	NaN	229	4	40	2	120	220	320	NaN	520	0.783325286116451	2	0	NaN	3270349.0642476	NaN	3270350.0476363	3270350.56419551
54	18	0	0	90	36.1581920903955	36.241610738255	10	0.333381559886038	2	7	5	NaN	2	3	0.231494007595073	0	1	NaN	230	4	41	2	120	220	320	NaN	520	0.010405583307147	2	1	NaN	3270352.1645442	NaN	3270353.147953	3270353.66449472
54	18	0	0	90	36.1581920903955	36.241610738255	21	0.70010127576068	2	4	1	NaN	1	4	0.231494007595073	0	1	NaN	231	4	42	2	120	220	320	NaN	520	0.0104222320951521	1	1	NaN	3270354.4814507	NaN	3270355.4648306	3270355.98138637
54	18	0	0	90	36.1581920903955	36.241610738255	16	0.533410495817661	2	2	3	NaN	1	3	0.231494007595073	0	1	NaN	232	4	43	2	120	220	320	NaN	520	0.0103903352282941	1	1	NaN	3270356.7983293	NaN	3270357.7817823	3270358.29828876
54	18	0	0	90	36.1581920903955	36.241610738255	20	0.666763119772077	2	3	4	NaN	1	5	0.231494007595073	0	1	NaN	233	4	44	2	120	220	320	NaN	520	0.0103774862363935	1	1	NaN	3270359.1319018	NaN	3270360.115273	3270360.63184901
54	18	0	0	90	36.1581920903955	36.241610738255	9	0.300043403897435	2	8	3	NaN	2	3	0.231494007595073	0	1	NaN	234	4	45	2	120	220	320	NaN	520	0.0543426834046841	1	0	NaN	3270361.4487911	NaN	3270362.4321936	3270362.94873752
54	18	0	0	90	36.1581920903955	36.241610738255	0	0	1	4	3	NaN	1	3	0.231494007595073	0	1	NaN	235	4	46	2	110	210	310	NaN	510	0.0103805861435831	1	1	NaN	3270363.8157406	NaN	3270364.7991356	3270365.31563921
54	18	0	0	90	36.1581920903955	36.241610738255	13	0.43339602785185	2	10	4	NaN	2	5	0.231494007595073	0	1	NaN	236	4	47	2	120	220	320	NaN	520	0.914930783212185	2	1	NaN	3270366.1325903	NaN	3270367.1159897	3270367.63252982
54	18	0	0	90	36.1581920903955	36.241610738255	19	0.633424963783473	2	2	5	NaN	1	3	0.231494007595073	0	1	NaN	237	4	48	2	120	220	320	NaN	520	0.0103895352222025	1	1	NaN	3270369.3662248	NaN	3270370.3496447	3270370.86618776
54	18	0	0	90	36.1581920903955	36.241610738255	12	0.400057871863246	2	6	1	NaN	1	3	0.231494007595073	0	1	NaN	238	4	49	2	120	220	320	NaN	520	0.0103920348919928	1	1	NaN	3270371.6831135	NaN	3270372.6665343	3270373.18308676
54	18	0	0	90	36.1581920903955	36.241610738255	13	0.43339602785185	2	3	4	NaN	1	5	0.231494007595073	0	1	NaN	239	4	50	2	120	220	320	NaN	520	0.0103424894623458	2	0	NaN	3270374.0166982	NaN	3270375.0001186	3270375.51665291
54	18	0	0	90	36.1581920903955	36.241610738255	6	0.200028935931623	2	7	4	NaN	2	5	0.231494007595073	0	1	NaN	240	4	51	2	120	220	320	NaN	520	0.129397983662784	2	1	NaN	3270376.333575	NaN	3270377.3169794	3270377.83353182
54	18	0	0	90	36.1581920903955	36.241610738255	24	0.800115743726492	2	3	1	NaN	1	3	0.231494007595073	0	1	NaN	241	4	52	2	120	220	320	NaN	520	0.0104090832173824	2	0	NaN	3270378.7838346	NaN	3270379.7672215	3270380.28378102
54	18	0	0	90	36.1581920903955	36.241610738255	14	0.466734183840454	2	3	6	NaN	1	4	0.231494007595073	0	1	NaN	242	4	53	2	120	220	320	NaN	520	0.0104397833347321	2	0	NaN	3270381.3674385	NaN	3270382.3508175	3270382.86736412
54	18	0	0	90	36.1581920903955	36.241610738255	7	0.233367091920227	2	7	3	NaN	2	3	0.231494007595073	0	1	NaN	243	4	54	2	120	220	320	NaN	520	0.0103901349939406	2	1	NaN	3270383.6843142	NaN	3270384.6677231	3270385.18425426
54	18	0	0	90	36.1581920903955	36.241610738255	15	0.500072339829058	2	7	3	NaN	2	3	0.231494007595073	0	1	NaN	244	4	55	2	120	220	320	NaN	520	0.0103969350457191	2	1	NaN	3270386.0011929	NaN	3270386.984609	3270387.50116686
54	18	0	0	90	36.1581920903955	36.241610738255	16	0.533410495817661	2	8	3	NaN	2	3	0.231494007595073	0	1	NaN	245	4	56	2	120	220	320	NaN	520	0.0104198348708451	2	1	NaN	3270388.3347664	NaN	3270389.3181747	3270389.83470976
54	18	0	0	90	36.1581920903955	36.241610738255	12	0.400057871863246	2	5	6	NaN	1	4	0.231494007595073	0	1	NaN	246	4	57	2	120	220	320	NaN	520	0.0273991352878511	1	1	NaN	3270390.6516531	NaN	3270391.6350628	3270392.15161126
54	18	0	0	90	36.1581920903955	36.241610738255	21	0.70010127576068	2	6	5	NaN	1	3	0.231494007595073	0	1	NaN	247	4	58	2	120	220	320	NaN	520	0.958371186163276	1	1	NaN	3270392.9852503	NaN	3270393.9686599	3270394.48517951
54	18	0	0	90	36.1581920903955	36.241610738255	19	0.633424963783473	2	11	2	NaN	2	4	0.231494007595073	0	1	NaN	248	4	59	2	120	220	320	NaN	520	0.010403583291918	2	1	NaN	3270396.2522051	NaN	3270397.2356305	3270397.75215412
54	18	0	0	90	36.1581920903955	36.241610738255	8	0.266705247908831	2	8	4	NaN	2	3	0.231494007595073	0	1	NaN	249	4	60	2	120	220	320	NaN	520	0.010403583291918	2	1	NaN	3270398.5691098	NaN	3270399.552503	3270400.06905192
54	18	0	0	90	36.1581920903955	36.241610738255	16	0.533410495817661	2	3	4	NaN	1	4	0.231494007595073	0	1	NaN	250	4	61	2	120	220	320	NaN	520	0.24159648315981	2	0	NaN	3270400.885989	NaN	3270401.8693884	3270402.38594832
54	18	0	0	90	36.1581920903955	36.241610738255	21	0.70010127576068	2	10	3	NaN	2	3	0.231494007595073	0	1	NaN	251	4	62	2	120	220	320	NaN	520	0.763314983341843	2	1	NaN	3270403.4361298	NaN	3270404.4197314	3270404.93619322
54	18	0	0	90	36.1581920903955	36.241610738255	10	0.333381559886038	2	7	4	NaN	2	4	0.231494007595073	0	1	NaN	252	4	63	2	120	220	320	NaN	520	0.0104060834273696	2	1	NaN	3270408.4032407	NaN	3270409.3868032	3270409.90335292
54	18	0	0	90	36.1581920903955	36.241610738255	10	0.333381559886038	2	3	1	NaN	1	4	0.231494007595073	0	1	NaN	253	5	1	2	120	220	320	NaN	520	1.06211363477632	2	0	NaN	3270467.8093319	NaN	3270468.792631	3270469.30919037
54	18	0	0	90	36.1581920903955	36.241610738255	25	0.833453899715096	2	2	2	NaN	1	3	0.231494007595073	0	1	NaN	254	5	2	2	120	220	320	NaN	520	1.03905543545261	1	1	NaN	3270471.1762324	NaN	3270472.1596315	3270472.67618476
54	18	0	0	90	36.1581920903955	36.241610738255	19	0.633424963783473	2	7	6	NaN	2	3	0.231494007595073	0	1	NaN	255	5	3	2	120	220	320	NaN	520	0.304746983572841	2	1	NaN	3270474.5265606	NaN	3270475.5099625	3270476.02650692
54	18	0	0	90	36.1581920903955	36.241610738255	7	0.233367091920227	2	9	1	NaN	2	5	0.231494007595073	0	1	NaN	256	5	4	2	120	220	320	NaN	520	1.24775833496824	1	0	NaN	3270477.1434998	NaN	3270478.1268532	3270478.64343636
54	18	0	0	90	36.1581920903955	36.241610738255	16	0.533410495817661	2	10	1	NaN	2	4	0.231494007595073	0	1	NaN	257	5	5	2	120	220	320	NaN	520	1.17703253496438	2	1	NaN	3270480.7104958	NaN	3270481.693887	3270482.21046057
54	18	0	0	90	36.1581920903955	36.241610738255	8	0.266705247908831	2	2	1	NaN	1	4	0.231494007595073	0	1	NaN	258	5	6	2	120	220	320	NaN	520	0.533029134850949	1	1	NaN	3270484.194175	NaN	3270485.1775395	3270485.69412937
54	18	0	0	90	36.1581920903955	36.241610738255	25	0.833453899715096	2	11	2	NaN	2	5	0.231494007595073	0	1	NaN	259	5	7	2	120	220	320	NaN	520	0.0195213835686445	2	1	NaN	3270487.0277858	NaN	3270488.0112355	3270488.52773452
54	18	0	0	90	36.1581920903955	36.241610738255	22	0.733439431749284	2	11	6	NaN	2	3	0.231494007595073	0	1	NaN	260	5	8	2	120	220	320	NaN	520	0.0103388433344662	2	1	NaN	3270489.3613575	NaN	3270490.3447478	3270490.86130366
54	18	0	0	90	36.1581920903955	36.241610738255	25	0.833453899715096	2	7	6	NaN	2	3	0.231494007595073	0	1	NaN	261	5	9	2	120	220	320	NaN	520	0.3449657834135	2	1	NaN	3270491.678203	NaN	3270492.6616453	3270493.17819182
54	18	0	0	90	36.1581920903955	36.241610738255	8	0.266705247908831	2	7	2	NaN	2	3	0.231494007595073	0	1	NaN	262	5	10	2	120	220	320	NaN	520	0.316081583499908	1	0	NaN	3270494.7948078	NaN	3270495.7786446	3270496.29516312
54	18	0	0	90	36.1581920903955	36.241610738255	8	0.266705247908831	2	9	6	NaN	2	5	0.231494007595073	0	1	NaN	263	5	11	2	120	220	320	NaN	520	0.754501035436988	1	0	NaN	3270497.4288114	NaN	3270498.4122091	3270498.92876126
54	18	0	0	90	36.1581920903955	36.241610738255	23	0.766777587737888	2	6	3	NaN	1	5	0.231494007595073	0	1	NaN	264	5	12	2	120	220	320	NaN	520	0.15992173505947	1	1	NaN	3270500.4957871	NaN	3270501.4791782	3270501.99573067
54	18	0	0	90	36.1581920903955	36.241610738255	6	0.200028935931623	2	7	5	NaN	2	3	0.231494007595073	0	1	NaN	265	5	13	2	120	220	320	NaN	520	0.123863935470581	2	1	NaN	3270502.9793769	NaN	3270503.962737	3270504.47930816
54	18	0	0	90	36.1581920903955	36.241610738255	0	0	1	10	1	NaN	2	3	0.231494007595073	0	1	NaN	266	5	14	2	110	210	310	NaN	510	0.106466735247523	2	1	NaN	3270505.412929	NaN	3270506.3963652	3270506.91288116
54	18	0	0	90	36.1581920903955	36.241610738255	9	0.300043403897435	2	10	1	NaN	2	4	0.231494007595073	0	1	NaN	267	5	15	2	120	220	320	NaN	520	0.561575683299452	2	1	NaN	3270507.8296846	NaN	3270508.8132374	3270509.32977892
54	18	0	0	90	36.1581920903955	36.241610738255	14	0.466734183840454	2	12	6	NaN	2	3	0.231494007595073	0	1	NaN	268	5	16	2	120	220	320	NaN	520	0.694010686594993	2	1	NaN	3270510.7133169	NaN	3270511.6968603	3270512.21339581
54	18	0	0	90	36.1581920903955	36.241610738255	20	0.666763119772077	2	12	5	NaN	2	5	0.231494007595073	0	1	NaN	269	5	17	2	120	220	320	NaN	520	0.964794242754579	2	1	NaN	3270513.7304285	NaN	3270514.7138136	3270515.23036946
54	18	0	0	90	36.1581920903955	36.241610738255	9	0.300043403897435	2	7	1	NaN	2	5	0.231494007595073	0	1	NaN	270	5	18	2	120	220	320	NaN	520	0.513918235432357	2	1	NaN	3270516.997273	NaN	3270517.9808105	3270518.49735566
54	18	0	0	90	36.1581920903955	36.241610738255	14	0.466734183840454	2	11	4	NaN	2	4	0.231494007595073	0	1	NaN	271	5	19	2	120	220	320	NaN	520	0.297316383570433	2	1	NaN	3270519.8143323	NaN	3270520.7977209	3270521.31428982
54	18	0	0	90	36.1581920903955	36.241610738255	20	0.666763119772077	2	1	3	NaN	1	4	0.231494007595073	0	1	NaN	272	5	20	2	120	220	320	NaN	520	0.0961281349882483	2	0	NaN	3270522.4312717	NaN	3270523.4146613	3270523.93121846
54	18	0	0	90	36.1581920903955	36.241610738255	19	0.633424963783473	2	12	4	NaN	2	4	0.231494007595073	0	1	NaN	273	5	21	2	120	220	320	NaN	520	2.15988278342411	2	1	NaN	3270524.8315276	NaN	3270525.8149035	3270526.33144942
54	18	0	0	90	36.1581920903955	36.241610738255	7	0.233367091920227	2	8	5	NaN	2	3	0.231494007595073	0	1	NaN	274	5	22	2	120	220	320	NaN	520	0.732209535315633	2	1	NaN	3270529.3152785	NaN	3270530.2986734	3270530.81522016
54	18	0	0	90	36.1581920903955	36.241610738255	6	0.200028935931623	2	9	6	NaN	2	3	0.231494007595073	0	1	NaN	275	5	23	2	120	220	320	NaN	520	0.0103351408615708	2	1	NaN	3270532.3655572	NaN	3270533.3489739	3270533.86553096
54	18	0	0	90	36.1581920903955	36.241610738255	21	0.70010127576068	2	9	2	NaN	2	3	0.231494007595073	0	1	NaN	276	5	24	2	120	220	320	NaN	520	0.412890886422247	2	1	NaN	3270534.6824909	NaN	3270535.665899	3270536.18242051
54	18	0	0	90	36.1581920903955	36.241610738255	20	0.666763119772077	2	5	3	NaN	1	4	0.231494007595073	0	1	NaN	277	5	25	2	120	220	320	NaN	520	0.0104073835536838	1	1	NaN	3270537.4160722	NaN	3270538.3994728	3270538.91601832
54	18	0	0	90	36.1581920903955	36.241610738255	0	0	1	8	4	NaN	2	4	0.231494007595073	0	1	NaN	278	5	26	2	110	210	310	NaN	510	0.010393634904176	1	0	NaN	3270539.7329556	NaN	3270540.7163589	3270541.23290846
54	18	0	0	90	36.1581920903955	36.241610738255	13	0.43339602785185	2	5	1	NaN	1	5	0.231494007595073	0	1	NaN	279	5	27	2	120	220	320	NaN	520	0.565863935276866	2	0	NaN	3270552.6175456	NaN	3270553.6009315	3270554.11750906
54	18	0	0	90	36.1581920903955	36.241610738255	16	0.533410495817661	2	10	3	NaN	2	4	0.231494007595073	0	1	NaN	280	5	28	2	120	220	320	NaN	520	0.850209835451096	1	0	NaN	3270555.5011794	NaN	3270556.4845835	3270557.00113026
54	18	0	0	90	36.1581920903955	36.241610738255	16	0.533410495817661	2	3	4	NaN	1	5	0.231494007595073	0	1	NaN	281	5	29	2	120	220	320	NaN	520	0.451621235348284	2	0	NaN	3270558.6681618	NaN	3270559.6515465	3270560.16810976
54	18	0	0	90	36.1581920903955	36.241610738255	15	0.500072339829058	2	7	5	NaN	2	3	0.231494007595073	0	1	NaN	282	5	30	2	120	220	320	NaN	520	0.0923996833153069	1	0	NaN	3270561.4351033	NaN	3270562.4184971	3270562.93504762
54	18	0	0	90	36.1581920903955	36.241610738255	21	0.70010127576068	2	2	3	NaN	1	5	0.231494007595073	0	1	NaN	283	5	31	2	120	220	320	NaN	520	0.0103912353515625	1	1	NaN	3270563.8353446	NaN	3270564.8187407	3270565.33528266
54	18	0	0	90	36.1581920903955	36.241610738255	13	0.43339602785185	2	5	2	NaN	1	5	0.231494007595073	0	1	NaN	284	5	32	2	120	220	320	NaN	520	0.0102816945873201	1	1	NaN	3270566.1689023	NaN	3270567.1522939	3270567.66884301
54	18	0	0	90	36.1581920903955	36.241610738255	25	0.833453899715096	2	3	3	NaN	1	4	0.231494007595073	0	1	NaN	285	5	33	2	120	220	320	NaN	520	0.0104098836891353	1	1	NaN	3270568.4858037	NaN	3270569.4692064	3270569.98573062
54	18	0	0	90	36.1581920903955	36.241610738255	8	0.266705247908831	2	5	5	NaN	1	3	0.231494007595073	0	1	NaN	286	5	34	2	120	220	320	NaN	520	0.524805983528495	1	1	NaN	3270570.8025625	NaN	3270571.7860593	3270572.30263472
54	18	0	0	90	36.1581920903955	36.241610738255	13	0.43339602785185	2	8	6	NaN	2	3	0.231494007595073	0	1	NaN	287	5	35	2	120	220	320	NaN	520	0.0104140834882855	2	1	NaN	3270573.636301	NaN	3270574.6197027	3270575.13624022
54	18	0	0	90	36.1581920903955	36.241610738255	16	0.533410495817661	2	6	3	NaN	1	3	0.231494007595073	0	1	NaN	288	5	36	2	120	220	320	NaN	520	0.126386491581798	1	1	NaN	3270575.9531911	NaN	3270576.9364859	3270577.45314751
54	18	0	0	90	36.1581920903955	36.241610738255	11	0.366719715874642	2	9	5	NaN	2	3	0.231494007595073	0	1	NaN	289	5	37	2	120	220	320	NaN	520	0.0103934351354837	2	1	NaN	3270578.3867694	NaN	3270579.3701395	3270579.88670486
54	18	0	0	90	36.1581920903955	36.241610738255	18	0.600086807794869	2	5	1	NaN	1	3	0.231494007595073	0	1	NaN	290	5	38	2	120	220	320	NaN	520	0.0104058836586773	2	0	NaN	3270580.7036503	NaN	3270581.6870609	3270582.20359842
54	18	0	0	90	36.1581920903955	36.241610738255	18	0.600086807794869	2	12	2	NaN	2	4	0.231494007595073	0	1	NaN	291	5	39	2	120	220	320	NaN	520	0.0103913354687393	2	1	NaN	3270583.0205518	NaN	3270584.003963	3270584.52050586
54	18	0	0	90	36.1581920903955	36.241610738255	22	0.733439431749284	2	4	4	NaN	1	3	0.231494007595073	0	1	NaN	292	5	40	2	120	220	320	NaN	520	0.0104051833041012	1	1	NaN	3270585.3541279	NaN	3270586.3375125	3270586.85406002
54	18	0	0	90	36.1581920903955	36.241610738255	9	0.300043403897435	2	9	2	NaN	2	5	0.231494007595073	0	1	NaN	293	5	41	2	120	220	320	NaN	520	0.0103790867142379	2	1	NaN	3270587.7543525	NaN	3270588.7377578	3270589.25429511
54	18	0	0	90	36.1581920903955	36.241610738255	6	0.200028935931623	2	1	4	NaN	1	4	0.231494007595073	0	1	NaN	294	5	42	2	120	220	320	NaN	520	0.0104036834090948	1	1	NaN	3270590.0879094	NaN	3270591.0712149	3270591.58785652
54	18	0	0	90	36.1581920903955	36.241610738255	20	0.666763119772077	2	6	6	NaN	1	5	0.231494007595073	0	1	NaN	295	5	43	2	120	220	320	NaN	520	0.36986423516646	2	0	NaN	3270592.4214766	NaN	3270593.4048754	3270593.92142286
54	18	0	0	90	36.1581920903955	36.241610738255	13	0.43339602785185	2	7	5	NaN	2	5	0.231494007595073	0	1	NaN	296	5	44	2	120	220	320	NaN	520	0.0104045835323632	1	0	NaN	3270595.6384154	NaN	3270596.6218521	3270597.13840822
54	18	0	0	90	36.1581920903955	36.241610738255	14	0.466734183840454	2	6	6	NaN	1	4	0.231494007595073	0	1	NaN	297	5	45	2	120	220	320	NaN	520	0.0103930351324379	2	0	NaN	3270598.3052711	NaN	3270599.288783	3270599.80533266
54	18	0	0	90	36.1581920903955	36.241610738255	18	0.600086807794869	2	12	4	NaN	2	5	0.231494007595073	0	1	NaN	298	5	46	2	120	220	320	NaN	520	0.0104615353047848	1	0	NaN	3270600.6222737	NaN	3270601.6056865	3270602.12223376
54	18	0	0	90	36.1581920903955	36.241610738255	24	0.800115743726492	2	2	3	NaN	1	5	0.231494007595073	0	1	NaN	299	5	47	2	120	220	320	NaN	520	0.0104071837849915	2	0	NaN	3270602.9558388	NaN	3270603.9392336	3270604.45578332
54	18	0	0	90	36.1581920903955	36.241610738255	14	0.466734183840454	2	2	2	NaN	1	4	0.231494007595073	0	1	NaN	300	5	48	2	120	220	320	NaN	520	0.0103423893451691	1	1	NaN	3270605.2894186	NaN	3270606.2728314	3270606.78935831
54	18	0	0	90	36.1581920903955	36.241610738255	16	0.533410495817661	2	7	2	NaN	2	5	0.231494007595073	0	1	NaN	301	5	49	2	120	220	320	NaN	520	0.113233783748001	1	0	NaN	3270607.6062979	NaN	3270608.5897042	3270609.10624272
54	18	0	0	90	36.1581920903955	36.241610738255	9	0.300043403897435	2	4	4	NaN	1	4	0.231494007595073	0	1	NaN	302	5	50	2	120	220	320	NaN	520	0.463945632334799	1	1	NaN	3270610.0398686	NaN	3270611.0232667	3270611.53981147
54	18	0	0	90	36.1581920903955	36.241610738255	24	0.800115743726492	2	1	5	NaN	1	3	0.231494007595073	0	1	NaN	303	5	51	2	120	220	320	NaN	520	1.12117373524234	2	0	NaN	3270612.8068039	NaN	3270613.7902015	3270614.30675896
54	18	0	0	90	36.1581920903955	36.241610738255	24	0.800115743726492	2	12	1	NaN	2	3	0.231494007595073	0	1	NaN	304	5	52	2	120	220	320	NaN	520	0.0103923352435231	2	1	NaN	3270616.2404662	NaN	3270617.2238795	3270617.74042756
54	18	0	0	90	36.1581920903955	36.241610738255	20	0.666763119772077	2	2	5	NaN	1	3	0.231494007595073	0	1	NaN	305	5	53	2	120	220	320	NaN	520	0.281455635093153	2	0	NaN	3270618.5740559	NaN	3270619.5574499	3270620.07399246
54	18	0	0	90	36.1581920903955	36.241610738255	14	0.466734183840454	2	6	2	NaN	1	4	0.231494007595073	0	1	NaN	306	5	54	2	120	220	320	NaN	520	0.385153494775295	1	1	NaN	3270621.1744049	NaN	3270622.1577211	3270622.67425231
54	18	0	0	90	36.1581920903955	36.241610738255	25	0.833453899715096	2	9	3	NaN	2	4	0.231494007595073	0	1	NaN	307	5	55	2	120	220	320	NaN	520	1.27739128656685	2	1	NaN	3270623.8745629	NaN	3270624.8579475	3270625.37451631
54	18	0	0	90	36.1581920903955	36.241610738255	9	0.300043403897435	2	8	5	NaN	2	4	0.231494007595073	0	1	NaN	308	5	56	2	120	220	320	NaN	520	2.7726704836823	1	0	NaN	3270627.4749129	NaN	3270628.4583143	3270628.97486652
54	18	0	0	90	36.1581920903955	36.241610738255	8	0.266705247908831	2	1	4	NaN	1	5	0.231494007595073	0	1	NaN	309	5	57	2	120	220	320	NaN	520	0.504999632481486	2	0	NaN	3270632.5587502	NaN	3270633.5421883	3270634.05869107
54	18	0	0	90	36.1581920903955	36.241610738255	18	0.600086807794869	2	6	1	NaN	1	4	0.231494007595073	0	1	NaN	310	5	58	2	120	220	320	NaN	520	0.671877583488822	2	0	NaN	3270635.3756916	NaN	3270636.3590871	3270636.87563172
54	18	0	0	90	36.1581920903955	36.241610738255	24	0.800115743726492	2	10	6	NaN	2	4	0.231494007595073	0	1	NaN	311	5	59	2	120	220	320	NaN	520	1.8400138351135	2	1	NaN	3270638.3593196	NaN	3270639.3427111	3270639.85926216
54	18	0	0	90	36.1581920903955	36.241610738255	11	0.366719715874642	2	12	6	NaN	2	4	0.231494007595073	0	1	NaN	312	5	60	2	120	220	320	NaN	520	0.285006883554161	2	1	NaN	3270643.0264056	NaN	3270644.0098408	3270644.52638832
54	18	0	0	90	36.1581920903955	36.241610738255	23	0.766777587737888	2	12	5	NaN	2	5	0.231494007595073	0	1	NaN	313	5	61	2	120	220	320	NaN	520	0.0103874350897968	2	1	NaN	3270645.6266902	NaN	3270646.6101105	3270647.12664496
54	18	0	0	90	36.1581920903955	36.241610738255	11	0.366719715874642	2	7	1	NaN	2	5	0.231494007595073	0	1	NaN	314	5	62	2	120	220	320	NaN	520	1.20698272949085	1	0	NaN	3270647.9601369	NaN	3270648.9436586	3270649.46020657
54	18	0	0	90	36.1581920903955	36.241610738255	9	0.300043403897435	2	9	4	NaN	2	3	0.231494007595073	0	1	NaN	315	5	63	2	120	220	320	NaN	520	0.530217983294278	1	0	NaN	3270651.4772789	NaN	3270652.4606758	3270652.97721572
54	18	0	0	90	36.1581920903955	36.241610738255	9	0.300043403897435	2	5	5	NaN	1	4	0.231494007595073	0	1	NaN	316	6	1	2	120	220	320	NaN	520	0.0103922351263463	1	1	NaN	3270658.5279388	NaN	3270659.5113672	3270660.02791706
54	18	0	0	90	36.1581920903955	36.241610738255	10	0.333381559886038	2	3	4	NaN	1	5	0.231494007595073	0	1	NaN	317	6	2	2	120	220	320	NaN	520	0.010427632369101	2	0	NaN	3270661.2782086	NaN	3270662.2616297	3270662.77819327
54	18	0	0	90	36.1581920903955	36.241610738255	25	0.833453899715096	2	4	5	NaN	1	4	0.231494007595073	0	1	NaN	318	6	3	2	120	220	320	NaN	520	0.0364933349192142	2	0	NaN	3270663.5951201	NaN	3270664.578505	3270665.09507756
54	18	0	0	90	36.1581920903955	36.241610738255	23	0.766777587737888	2	1	1	NaN	1	5	0.231494007595073	0	1	NaN	319	6	4	2	120	220	320	NaN	520	0.0104104834608734	1	1	NaN	3270665.9453911	NaN	3270666.9287595	3270667.44530132
54	18	0	0	90	36.1581920903955	36.241610738255	23	0.766777587737888	2	3	3	NaN	1	4	0.231494007595073	0	1	NaN	320	6	5	2	120	220	320	NaN	520	0.0104052349925041	1	1	NaN	3270668.2622515	NaN	3270669.2456281	3270669.76220556
54	18	0	0	90	36.1581920903955	36.241610738255	18	0.600086807794869	2	10	6	NaN	2	5	0.231494007595073	0	1	NaN	321	6	6	2	120	220	320	NaN	520	0.0104164835065603	2	1	NaN	3270670.8791764	NaN	3270671.8625719	3270672.37912702
54	18	0	0	90	36.1581920903955	36.241610738255	10	0.333381559886038	2	4	6	NaN	1	3	0.231494007595073	0	1	NaN	322	6	7	2	120	220	320	NaN	520	0.115546835586429	1	1	NaN	3270673.1960895	NaN	3270674.1794772	3270674.69601426
54	18	0	0	90	36.1581920903955	36.241610738255	23	0.766777587737888	2	11	2	NaN	2	3	0.231494007595073	0	1	NaN	323	6	8	2	120	220	320	NaN	520	0.0899989837780595	2	1	NaN	3270675.629653	NaN	3270676.6130531	3270677.12959282
54	18	0	0	90	36.1581920903955	36.241610738255	8	0.266705247908831	2	12	2	NaN	2	5	0.231494007595073	0	1	NaN	324	6	9	2	120	220	320	NaN	520	0.742377835325897	2	1	NaN	3270678.9133194	NaN	3270679.8967001	3270680.41325946
54	18	0	0	90	36.1581920903955	36.241610738255	20	0.666763119772077	2	6	3	NaN	1	4	0.231494007595073	0	1	NaN	325	6	10	2	120	220	320	NaN	520	0.0200670352205634	1	1	NaN	3270681.9636147	NaN	3270682.9470055	3270683.46355156
54	18	0	0	90	36.1581920903955	36.241610738255	25	0.833453899715096	2	6	3	NaN	1	3	0.231494007595073	0	1	NaN	326	6	11	2	120	220	320	NaN	520	0.0103994347155094	1	1	NaN	3270684.6805066	NaN	3270685.6639354	3270686.18048067
54	18	0	0	90	36.1581920903955	36.241610738255	24	0.800115743726492	2	9	3	NaN	2	4	0.231494007595073	0	1	NaN	327	6	12	2	120	220	320	NaN	520	0.193479940760881	2	1	NaN	3270687.0139948	NaN	3270687.997528	3270688.51404636
54	18	0	0	90	36.1581920903955	36.241610738255	25	0.833453899715096	2	10	5	NaN	2	4	0.231494007595073	0	1	NaN	328	6	13	2	120	220	320	NaN	520	0.0293432921171188	1	0	NaN	3270689.5142138	NaN	3270690.4977907	3270691.01428471
54	18	0	0	90	36.1581920903955	36.241610738255	7	0.233367091920227	2	12	1	NaN	2	5	0.231494007595073	0	1	NaN	329	6	14	2	120	220	320	NaN	520	0.151173735037446	2	1	NaN	3270691.8645795	NaN	3270692.8479741	3270693.36452106
54	18	0	0	90	36.1581920903955	36.241610738255	17	0.566748651806265	2	9	5	NaN	2	4	0.231494007595073	0	1	NaN	330	6	15	2	120	220	320	NaN	520	0.628453235141933	2	1	NaN	3270694.3315659	NaN	3270695.3149305	3270695.83142497
54	18	0	0	90	36.1581920903955	36.241610738255	22	0.733439431749284	2	3	6	NaN	1	5	0.231494007595073	0	1	NaN	331	6	16	2	120	220	320	NaN	520	0.670487683266401	1	1	NaN	3270697.2650991	NaN	3270698.2485256	3270698.76504992
54	18	0	0	90	36.1581920903955	36.241610738255	13	0.43339602785185	2	1	4	NaN	1	4	0.231494007595073	0	1	NaN	332	6	17	2	120	220	320	NaN	520	0.0103721865452826	1	1	NaN	3270700.2487208	NaN	3270701.2321188	3270701.74868261
54	18	0	0	90	36.1581920903955	36.241610738255	16	0.533410495817661	2	5	4	NaN	1	4	0.231494007595073	0	1	NaN	333	6	18	2	120	220	320	NaN	520	1.12204048316926	1	1	NaN	3270702.5656451	NaN	3270703.5490237	3270704.06556702
54	18	0	0	90	36.1581920903955	36.241610738255	20	0.666763119772077	2	3	1	NaN	1	5	0.231494007595073	0	1	NaN	334	6	19	2	120	220	320	NaN	520	1.40959173534065	2	0	NaN	3270706.5659115	NaN	3270707.5494317	3270708.06595636
54	18	0	0	90	36.1581920903955	36.241610738255	15	0.500072339829058	2	6	2	NaN	1	5	0.231494007595073	0	1	NaN	335	6	20	2	120	220	320	NaN	520	0.601232335437089	1	1	NaN	3270710.7663968	NaN	3270711.7498237	3270712.26637406
54	18	0	0	90	36.1581920903955	36.241610738255	23	0.766777587737888	2	8	2	NaN	2	4	0.231494007595073	0	1	NaN	336	6	21	2	120	220	320	NaN	520	2.06803203513846	1	0	NaN	3270714.2834493	NaN	3270715.2668328	3270715.78338746
54	18	0	0	90	36.1581920903955	36.241610738255	6	0.200028935931623	2	10	3	NaN	2	5	0.231494007595073	0	1	NaN	337	6	22	2	120	220	320	NaN	520	0.932519783265889	2	1	NaN	3270718.667194	NaN	3270719.6506192	3270720.16715542
54	18	0	0	90	36.1581920903955	36.241610738255	7	0.233367091920227	2	9	1	NaN	2	5	0.231494007595073	0	1	NaN	338	6	23	2	120	220	320	NaN	520	2.22607813542709	1	0	NaN	3270721.9175187	NaN	3270722.9009148	3270723.41747696
54	18	0	0	90	36.1581920903955	36.241610738255	7	0.233367091920227	2	10	1	NaN	2	5	0.231494007595073	0	1	NaN	339	6	24	2	120	220	320	NaN	520	4.05169338360429	1	0	NaN	3270726.4679617	NaN	3270727.4513484	3270727.96791772
54	18	0	0	90	36.1581920903955	36.241610738255	8	0.266705247908831	2	12	4	NaN	2	3	0.231494007595073	0	1	NaN	340	6	25	2	120	220	320	NaN	520	4.03624693537131	1	0	NaN	3270733.2352453	NaN	3270734.2186876	3270734.73524266
54	18	0	0	90	36.1581920903955	36.241610738255	17	0.566748651806265	2	11	4	NaN	2	5	0.231494007595073	0	1	NaN	341	6	26	2	120	220	320	NaN	520	0.133520086761564	2	1	NaN	3270739.5858865	NaN	3270740.569302	3270741.08587031
54	18	0	0	90	36.1581920903955	36.241610738255	18	0.600086807794869	2	2	6	NaN	1	4	0.231494007595073	0	1	NaN	342	6	27	2	120	220	320	NaN	520	0.403836835175753	2	0	NaN	3270742.0361667	NaN	3270743.0195714	3270743.53611326
54	18	0	0	90	36.1581920903955	36.241610738255	6	0.200028935931623	2	2	4	NaN	1	3	0.231494007595073	0	1	NaN	343	6	28	2	120	220	320	NaN	520	0.0104051837697625	1	1	NaN	3270744.753094	NaN	3270745.736498	3270746.25304422
54	18	0	0	90	36.1581920903955	36.241610738255	0	0	1	11	2	NaN	2	4	0.231494007595073	0	1	NaN	344	6	29	2	110	210	310	NaN	510	0.0104017835110426	2	1	NaN	3270747.0698584	NaN	3270748.0533956	3270748.56994022
54	18	0	0	90	36.1581920903955	36.241610738255	8	0.266705247908831	2	6	4	NaN	1	5	0.231494007595073	0	1	NaN	345	6	30	2	120	220	320	NaN	520	0.0107484865002334	1	1	NaN	3270749.3868406	NaN	3270750.3702883	3270750.88683611
54	18	0	0	90	36.1581920903955	36.241610738255	11	0.366719715874642	2	10	2	NaN	2	4	0.231494007595073	0	1	NaN	346	6	31	2	120	220	320	NaN	520	0.0103961355052888	2	1	NaN	3270751.7036587	NaN	3270752.6871719	3270753.20372826
54	18	0	0	90	36.1581920903955	36.241610738255	8	0.266705247908831	2	10	5	NaN	2	4	0.231494007595073	0	1	NaN	347	6	32	2	120	220	320	NaN	520	0.0103921350091696	1	0	NaN	3270754.1040343	NaN	3270755.0874137	3270755.60397086
54	18	0	0	90	36.1581920903955	36.241610738255	0	0	1	3	2	NaN	1	4	0.231494007595073	0	1	NaN	348	6	33	2	110	210	310	NaN	510	0.0104004838503897	2	0	NaN	3270756.4207874	NaN	3270757.4042814	3270757.92085172
54	18	0	0	90	36.1581920903955	36.241610738255	12	0.400057871863246	2	3	6	NaN	1	5	0.231494007595073	0	1	NaN	349	6	34	2	120	220	320	NaN	520	0.013877535238862	1	1	NaN	3270758.7378072	NaN	3270759.7212163	3270760.23775866
54	18	0	0	90	36.1581920903955	36.241610738255	9	0.300043403897435	2	12	1	NaN	2	4	0.231494007595073	0	1	NaN	350	6	35	2	120	220	320	NaN	520	0.0104006351903081	2	1	NaN	3270761.0713798	NaN	3270762.0547733	3270762.57131526
54	18	0	0	90	36.1581920903955	36.241610738255	9	0.300043403897435	2	2	6	NaN	1	5	0.231494007595073	0	1	NaN	351	6	36	2	120	220	320	NaN	520	0.771376983262599	1	1	NaN	3270763.3882765	NaN	3270764.3716574	3270764.88820752
54	18	0	0	90	36.1581920903955	36.241610738255	18	0.600086807794869	2	11	4	NaN	2	5	0.231494007595073	0	1	NaN	352	6	37	2	120	220	320	NaN	520	0.450142735149711	2	1	NaN	3270767.0219408	NaN	3270768.0053177	3270768.52189746
54	18	0	0	90	36.1581920903955	36.241610738255	23	0.766777587737888	2	10	3	NaN	2	3	0.231494007595073	0	1	NaN	353	6	38	2	120	220	320	NaN	520	0.810709283687174	1	0	NaN	3270769.7888793	NaN	3270770.7722914	3270771.28883242
54	18	0	0	90	36.1581920903955	36.241610738255	12	0.400057871863246	2	2	1	NaN	1	3	0.231494007595073	0	1	NaN	354	6	39	2	120	220	320	NaN	520	0.0297917830757797	1	1	NaN	3270772.9058678	NaN	3270773.8892723	3270774.40580332
54	18	0	0	90	36.1581920903955	36.241610738255	24	0.800115743726492	2	8	2	NaN	2	4	0.231494007595073	0	1	NaN	355	6	40	2	120	220	320	NaN	520	0.0104126837104559	2	1	NaN	3270775.2394208	NaN	3270776.2228234	3270776.73936492
54	18	0	0	90	36.1581920903955	36.241610738255	25	0.833453899715096	2	1	2	NaN	1	5	0.231494007595073	0	1	NaN	356	6	41	2	120	220	320	NaN	520	0.58705883519724	2	0	NaN	3270777.5729916	NaN	3270778.5563801	3270779.07294766
54	18	0	0	90	36.1581920903955	36.241610738255	12	0.400057871863246	2	9	5	NaN	2	5	0.231494007595073	0	1	NaN	357	6	42	2	120	220	320	NaN	520	0.0104045835323632	2	1	NaN	3270782.4068078	NaN	3270783.3901962	3270783.90674312
54	18	0	0	90	36.1581920903955	36.241610738255	9	0.300043403897435	2	10	4	NaN	2	4	0.231494007595073	0	1	NaN	358	6	43	2	120	220	320	NaN	520	0.139957783743739	2	1	NaN	3270784.7236897	NaN	3270785.7071018	3270786.22363972
54	18	0	0	90	36.1581920903955	36.241610738255	21	0.70010127576068	2	10	6	NaN	2	3	0.231494007595073	0	1	NaN	359	6	44	2	120	220	320	NaN	520	0.0818996890448034	2	1	NaN	3270787.1738045	NaN	3270788.1573245	3270788.67387491
54	18	0	0	90	36.1581920903955	36.241610738255	24	0.800115743726492	2	7	3	NaN	2	4	0.231494007595073	0	1	NaN	360	6	45	2	120	220	320	NaN	520	0.961544337682426	2	1	NaN	3270789.5741891	NaN	3270790.5575498	3270791.07412156
54	18	0	0	90	36.1581920903955	36.241610738255	15	0.500072339829058	2	8	5	NaN	2	5	0.231494007595073	0	1	NaN	361	6	46	2	120	220	320	NaN	520	1.6625111810863	2	1	NaN	3270792.8411409	NaN	3270793.8245408	3270794.34109842
54	18	0	0	90	36.1581920903955	36.241610738255	24	0.800115743726492	2	12	1	NaN	2	5	0.231494007595073	0	1	NaN	362	6	47	2	120	220	320	NaN	520	0.0103901349939406	1	0	NaN	3270796.8082221	NaN	3270797.7916082	3270798.30815216
54	18	0	0	90	36.1581920903955	36.241610738255	13	0.43339602785185	2	11	5	NaN	2	4	0.231494007595073	0	1	NaN	363	6	48	2	120	220	320	NaN	520	0.0103657376021147	2	1	NaN	3270799.1417815	NaN	3270800.125169	3270800.64172136
54	18	0	0	90	36.1581920903955	36.241610738255	15	0.500072339829058	2	4	5	NaN	1	5	0.231494007595073	0	1	NaN	364	6	49	2	120	220	320	NaN	520	0.0103919352404773	1	1	NaN	3270801.4586719	NaN	3270802.4420428	3270802.95861586
54	18	0	0	90	36.1581920903955	36.241610738255	7	0.233367091920227	2	8	6	NaN	2	3	0.231494007595073	0	1	NaN	365	6	50	2	120	220	320	NaN	520	0.0102192000485957	1	0	NaN	3270803.7922233	NaN	3270804.7756311	3270805.2921959
54	18	0	0	90	36.1581920903955	36.241610738255	0	0	1	5	3	NaN	1	3	0.231494007595073	0	1	NaN	366	6	51	2	110	210	310	NaN	510	0.0347825353965163	1	1	NaN	3270806.1092148	NaN	3270807.0924989	3270807.60907146
54	18	0	0	90	36.1581920903955	36.241610738255	20	0.666763119772077	2	8	4	NaN	2	3	0.231494007595073	0	1	NaN	367	6	52	2	120	220	320	NaN	520	0.0104192323051393	2	1	NaN	3270808.6260045	NaN	3270809.6094215	3270810.12597877
54	18	0	0	90	36.1581920903955	36.241610738255	8	0.266705247908831	2	3	3	NaN	1	5	0.231494007595073	0	1	NaN	368	6	53	2	120	220	320	NaN	520	0.0321258832700551	1	1	NaN	3270810.9596069	NaN	3270811.9430004	3270812.45956552
54	18	0	0	90	36.1581920903955	36.241610738255	11	0.366719715874642	2	4	1	NaN	1	3	0.231494007595073	0	1	NaN	369	6	54	2	120	220	320	NaN	520	0.513845583423972	1	1	NaN	3270813.3098121	NaN	3270814.2933024	3270814.80977812
54	18	0	0	90	36.1581920903955	36.241610738255	22	0.733439431749284	2	9	4	NaN	2	5	0.231494007595073	0	1	NaN	370	6	55	2	120	220	320	NaN	520	0.0103887347504497	2	1	NaN	3270816.5600133	NaN	3270817.5435479	3270818.06009607
54	18	0	0	90	36.1581920903955	36.241610738255	22	0.733439431749284	2	12	5	NaN	2	5	0.231494007595073	0	1	NaN	371	6	56	2	120	220	320	NaN	520	0.0103857354260981	2	1	NaN	3270818.8770483	NaN	3270819.8604413	3270820.37699306
54	18	0	0	90	36.1581920903955	36.241610738255	7	0.233367091920227	2	12	5	NaN	2	5	0.231494007595073	0	1	NaN	372	6	57	2	120	220	320	NaN	520	0.173149486072361	2	1	NaN	3270821.6106147	NaN	3270822.594036	3270823.11058931
54	18	0	0	90	36.1581920903955	36.241610738255	10	0.333381559886038	2	5	5	NaN	1	4	0.231494007595073	0	1	NaN	373	6	58	2	120	220	320	NaN	520	0.0104047833010554	1	1	NaN	3270824.0940802	NaN	3270825.0776187	3270825.59416442
54	18	0	0	90	36.1581920903955	36.241610738255	21	0.70010127576068	2	12	2	NaN	2	5	0.231494007595073	0	1	NaN	374	6	59	2	120	220	320	NaN	520	0.0104139833711088	2	1	NaN	3270826.8944667	NaN	3270827.8778768	3270828.39444322
54	18	0	0	90	36.1581920903955	36.241610738255	8	0.266705247908831	2	5	1	NaN	1	4	0.231494007595073	0	1	NaN	375	6	60	2	120	220	320	NaN	520	0.215632596984506	1	1	NaN	3270831.1281873	NaN	3270832.1116788	3270832.6281933
54	18	0	0	90	36.1581920903955	36.241610738255	15	0.500072339829058	2	12	6	NaN	2	3	0.231494007595073	0	1	NaN	376	6	61	2	120	220	320	NaN	520	0.0103931352496147	2	1	NaN	3270834.6786339	NaN	3270835.6619667	3270836.17854216
54	18	0	0	90	36.1581920903955	36.241610738255	23	0.766777587737888	2	10	4	NaN	2	3	0.231494007595073	0	1	NaN	377	6	62	2	120	220	320	NaN	520	0.033649483229965	2	1	NaN	3270837.4621563	NaN	3270838.4455941	3270838.96214202
54	18	0	0	90	36.1581920903955	36.241610738255	12	0.400057871863246	2	4	2	NaN	1	5	0.231494007595073	0	1	NaN	378	6	63	2	120	220	320	NaN	520	0.0103750862181187	1	1	NaN	3270839.8124054	NaN	3270840.7958303	3270841.31238021
54	18	0	0	90	36.1581920903955	36.241610738255	7	0.233367091920227	2	3	6	NaN	1	5	0.231494007595073	0	1	NaN	379	7	1	2	120	220	320	NaN	520	0.0446975831873715	2	0	NaN	3270888.6672319	NaN	3270889.6506282	3270890.16717802
54	18	0	0	90	36.1581920903955	36.241610738255	12	0.400057871863246	2	11	3	NaN	2	3	0.231494007595073	0	1	NaN	380	7	2	2	120	220	320	NaN	520	0.0198536943644285	1	0	NaN	3270891.4841347	NaN	3270892.4675546	3270892.98411661
54	18	0	0	90	36.1581920903955	36.241610738255	9	0.300043403897435	2	6	1	NaN	1	5	0.231494007595073	0	1	NaN	381	7	3	2	120	220	320	NaN	520	0.974125483073294	1	1	NaN	3270893.8177353	NaN	3270894.8011334	3270895.31767492
54	18	0	0	90	36.1581920903955	36.241610738255	12	0.400057871863246	2	10	5	NaN	2	4	0.231494007595073	0	1	NaN	382	7	4	2	120	220	320	NaN	520	0.010409583337605	2	1	NaN	3270897.1013409	NaN	3270898.0848201	3270898.60133662
54	18	0	0	90	36.1581920903955	36.241610738255	8	0.266705247908831	2	9	5	NaN	2	4	0.231494007595073	0	1	NaN	383	7	5	2	120	220	320	NaN	520	0.96536723524332	2	1	NaN	3270899.4349577	NaN	3270900.4183465	3270900.93490026
54	18	0	0	90	36.1581920903955	36.241610738255	11	0.366719715874642	2	6	4	NaN	1	3	0.231494007595073	0	1	NaN	384	7	6	2	120	220	320	NaN	520	0.681354883592576	1	1	NaN	3270902.7186202	NaN	3270903.7020303	3270904.21855892
54	18	0	0	90	36.1581920903955	36.241610738255	15	0.500072339829058	2	2	5	NaN	1	5	0.231494007595073	0	1	NaN	385	7	7	2	120	220	320	NaN	520	0.424944480881095	1	1	NaN	3270905.7189032	NaN	3270906.7022724	3270907.21884762
54	18	0	0	90	36.1581920903955	36.241610738255	19	0.633424963783473	2	9	4	NaN	2	5	0.231494007595073	0	1	NaN	386	7	8	2	120	220	320	NaN	520	0.539363634772599	2	1	NaN	3270908.4525084	NaN	3270909.4358979	3270909.95245807
54	18	0	0	90	36.1581920903955	36.241610738255	9	0.300043403897435	2	12	5	NaN	2	5	0.231494007595073	0	1	NaN	387	7	9	2	120	220	320	NaN	520	0.0103882355615497	1	0	NaN	3270911.6694872	NaN	3270912.6528637	3270913.16943496
54	18	0	0	90	36.1581920903955	36.241610738255	12	0.400057871863246	2	10	4	NaN	2	4	0.231494007595073	0	1	NaN	388	7	10	2	120	220	320	NaN	520	0.87760538328439	1	0	NaN	3270913.9863818	NaN	3270914.969796	3270915.48632412
54	18	0	0	90	36.1581920903955	36.241610738255	0	0	1	6	3	NaN	1	4	0.231494007595073	0	1	NaN	389	7	11	2	110	210	310	NaN	510	0.629887486342341	1	1	NaN	3270917.1700137	NaN	3270918.1534164	3270918.66998031
54	18	0	0	90	36.1581920903955	36.241610738255	22	0.733439431749284	2	12	4	NaN	2	4	0.231494007595073	0	1	NaN	390	7	12	2	120	220	320	NaN	520	1.25561598362401	1	0	NaN	3270920.1203222	NaN	3270921.1037181	3270921.62026422
54	18	0	0	90	36.1581920903955	36.241610738255	25	0.833453899715096	2	6	3	NaN	1	5	0.231494007595073	0	1	NaN	391	7	13	2	120	220	320	NaN	520	0.232607235200703	1	1	NaN	3270923.6873408	NaN	3270924.6707379	3270925.18728126
54	18	0	0	90	36.1581920903955	36.241610738255	20	0.666763119772077	2	5	4	NaN	1	5	0.231494007595073	0	1	NaN	392	7	14	2	120	220	320	NaN	520	0.0103898351080716	1	1	NaN	3270926.2209181	NaN	3270927.2043204	3270927.72085836
54	18	0	0	90	36.1581920903955	36.241610738255	18	0.600086807794869	2	7	4	NaN	2	3	0.231494007595073	0	1	NaN	393	7	15	2	120	220	320	NaN	520	0.0103920348919928	2	1	NaN	3270928.5378085	NaN	3270929.5211865	3270930.03775777
54	18	0	0	90	36.1581920903955	36.241610738255	11	0.366719715874642	2	5	4	NaN	1	3	0.231494007595073	0	1	NaN	394	7	16	2	120	220	320	NaN	520	0.569497635122389	1	1	NaN	3270930.8546962	NaN	3270931.8380979	3270932.35465636
54	18	0	0	90	36.1581920903955	36.241610738255	25	0.833453899715096	2	3	5	NaN	1	3	0.231494007595073	0	1	NaN	395	7	17	2	120	220	320	NaN	520	0.525573934894055	1	1	NaN	3270933.7383239	NaN	3270934.7216981	3270935.23828286
54	18	0	0	90	36.1581920903955	36.241610738255	10	0.333381559886038	2	8	4	NaN	2	3	0.231494007595073	0	1	NaN	396	7	18	2	120	220	320	NaN	520	0.0104063833132386	2	1	NaN	3270936.588627	NaN	3270937.5720862	3270938.08854822
54	18	0	0	90	36.1581920903955	36.241610738255	23	0.766777587737888	2	2	2	NaN	1	5	0.231494007595073	0	1	NaN	397	7	19	2	120	220	320	NaN	520	0.110618986189365	2	0	NaN	3270938.9054942	NaN	3270939.8888887	3270940.40544071
54	18	0	0	90	36.1581920903955	36.241610738255	0	0	1	11	4	NaN	2	3	0.231494007595073	0	1	NaN	398	7	20	2	110	210	310	NaN	510	0.0104073830880225	2	1	NaN	3270941.3223079	NaN	3270942.3058	3270942.82234122
54	18	0	0	90	36.1581920903955	36.241610738255	19	0.633424963783473	2	6	4	NaN	1	5	0.231494007595073	0	1	NaN	399	7	21	2	120	220	320	NaN	520	0.312592035159469	1	1	NaN	3270943.639307	NaN	3270944.622747	3270945.13924176
54	18	0	0	90	36.1581920903955	36.241610738255	22	0.733439431749284	2	3	3	NaN	1	4	0.231494007595073	0	1	NaN	400	7	22	2	120	220	320	NaN	520	0.0103920353576541	1	1	NaN	3270946.2728733	NaN	3270947.2562876	3270947.77283986
54	18	0	0	90	36.1581920903955	36.241610738255	20	0.666763119772077	2	1	1	NaN	1	4	0.231494007595073	0	1	NaN	401	7	23	2	120	220	320	NaN	520	0.434204935096204	1	1	NaN	3270948.58978	NaN	3270949.5731604	3270950.08972656
54	18	0	0	90	36.1581920903955	36.241610738255	20	0.666763119772077	2	9	1	NaN	2	4	0.231494007595073	0	1	NaN	402	7	24	2	120	220	320	NaN	520	0.587899735197425	2	1	NaN	3270951.340053	NaN	3270952.3234414	3270952.84000336
54	18	0	0	90	36.1581920903955	36.241610738255	13	0.43339602785185	2	10	2	NaN	2	4	0.231494007595073	0	1	NaN	403	7	25	2	120	220	320	NaN	520	0.623769726604223	2	1	NaN	3270954.2403398	NaN	3270955.2237221	3270955.74028497
54	18	0	0	90	36.1581920903955	36.241610738255	12	0.400057871863246	2	12	1	NaN	2	5	0.231494007595073	0	1	NaN	404	7	26	2	120	220	320	NaN	520	0.0103734866715968	2	1	NaN	3270957.1739597	NaN	3270958.157359	3270958.67390611
54	18	0	0	90	36.1581920903955	36.241610738255	25	0.833453899715096	2	10	1	NaN	2	4	0.231494007595073	0	1	NaN	405	7	27	2	120	220	320	NaN	520	0.0103921350091696	2	1	NaN	3270959.4908437	NaN	3270960.4742338	3270960.99079806
54	18	0	0	90	36.1581920903955	36.241610738255	15	0.500072339829058	2	1	3	NaN	1	3	0.231494007595073	0	1	NaN	406	7	28	2	120	220	320	NaN	520	0.010389934759587	1	1	NaN	3270961.8077488	NaN	3270962.7911407	3270963.30769057
54	18	0	0	90	36.1581920903955	36.241610738255	6	0.200028935931623	2	10	2	NaN	2	5	0.231494007595073	0	1	NaN	407	7	29	2	120	220	320	NaN	520	0.0103951347991824	1	0	NaN	3270964.1247328	NaN	3270965.1080192	3270965.62458027
54	18	0	0	90	36.1581920903955	36.241610738255	7	0.233367091920227	2	5	2	NaN	1	4	0.231494007595073	0	1	NaN	408	7	30	2	120	220	320	NaN	520	0.0304133836179972	1	1	NaN	3270966.4415381	NaN	3270967.4249135	3270967.94147662
54	18	0	0	90	36.1581920903955	36.241610738255	15	0.500072339829058	2	10	3	NaN	2	4	0.231494007595073	0	1	NaN	409	7	31	2	120	220	320	NaN	520	0.57632723543793	1	0	NaN	3270968.7916334	NaN	3270969.7751455	3270970.29171046
54	18	0	0	90	36.1581920903955	36.241610738255	25	0.833453899715096	2	12	4	NaN	2	4	0.231494007595073	0	1	NaN	410	7	32	2	120	220	320	NaN	520	0.411999683827162	2	1	NaN	3270971.6921395	NaN	3270972.6754479	3270973.19198992
54	18	0	0	90	36.1581920903955	36.241610738255	22	0.733439431749284	2	5	6	NaN	1	5	0.231494007595073	0	1	NaN	411	7	33	2	120	220	320	NaN	520	0.79896233510226	1	1	NaN	3270974.4088592	NaN	3270975.3924314	3270975.90892976
54	18	0	0	90	36.1581920903955	36.241610738255	13	0.43339602785185	2	4	5	NaN	1	3	0.231494007595073	0	1	NaN	412	7	34	2	120	220	320	NaN	520	0.458377732429653	1	1	NaN	3270977.5259439	NaN	3270978.5093578	3270979.02589447
54	18	0	0	90	36.1581920903955	36.241610738255	22	0.733439431749284	2	2	1	NaN	1	3	0.231494007595073	0	1	NaN	413	7	35	2	120	220	320	NaN	520	0.4829929349944	1	1	NaN	3270980.2928865	NaN	3270981.2762969	3270981.79284086
54	18	0	0	90	36.1581920903955	36.241610738255	9	0.300043403897435	2	11	1	NaN	2	4	0.231494007595073	0	1	NaN	414	7	36	2	120	220	320	NaN	520	0.0908810240216553	2	1	NaN	3270983.0930129	NaN	3270984.0765678	3270984.59311448
54	18	0	0	90	36.1581920903955	36.241610738255	17	0.566748651806265	2	9	3	NaN	2	3	0.231494007595073	0	1	NaN	415	7	37	2	120	220	320	NaN	520	0.154937435407192	1	0	NaN	3270985.4934054	NaN	3270986.4768006	3270986.99335226
54	18	0	0	90	36.1581920903955	36.241610738255	23	0.766777587737888	2	7	6	NaN	2	3	0.231494007595073	0	1	NaN	416	7	38	2	120	220	320	NaN	520	0.799047235399485	1	0	NaN	3270987.9769983	NaN	3270988.9603739	3270989.47693526
54	18	0	0	90	36.1581920903955	36.241610738255	21	0.70010127576068	2	6	5	NaN	1	3	0.231494007595073	0	1	NaN	417	7	39	2	120	220	320	NaN	520	0.0103929350152612	1	1	NaN	3270991.0939755	NaN	3270992.0773275	3270992.59389836
54	18	0	0	90	36.1581920903955	36.241610738255	15	0.500072339829058	2	5	2	NaN	1	3	0.231494007595073	0	1	NaN	418	7	40	2	120	220	320	NaN	520	0.133327335119247	1	1	NaN	3270993.410849	NaN	3270994.3942203	3270994.91080126
54	18	0	0	90	36.1581920903955	36.241610738255	18	0.600086807794869	2	3	1	NaN	1	3	0.231494007595073	0	1	NaN	419	7	41	2	120	220	320	NaN	520	0.0746088353917003	2	0	NaN	3270995.8610925	NaN	3270996.8445254	3270997.36103666
54	18	0	0	90	36.1581920903955	36.241610738255	24	0.800115743726492	2	6	2	NaN	1	5	0.231494007595073	0	1	NaN	420	7	42	2	120	220	320	NaN	520	0.010405283421278	1	1	NaN	3270998.244664	NaN	3270999.2280581	3270999.74459732
54	18	0	0	90	36.1581920903955	36.241610738255	15	0.500072339829058	2	11	3	NaN	2	4	0.231494007595073	0	1	NaN	421	7	43	2	120	220	320	NaN	520	0.0104084834456444	1	0	NaN	3271000.5782238	NaN	3271001.5616208	3271002.07816772
54	18	0	0	90	36.1581920903955	36.241610738255	18	0.600086807794869	2	1	1	NaN	1	4	0.231494007595073	0	1	NaN	422	7	44	2	120	220	320	NaN	520	1.01698808651417	1	1	NaN	3271002.8951146	NaN	3271003.8785449	3271004.39506281
54	18	0	0	90	36.1581920903955	36.241610738255	8	0.266705247908831	2	2	6	NaN	1	3	0.231494007595073	0	1	NaN	423	7	45	2	120	220	320	NaN	520	0.0274061351083219	2	0	NaN	3271006.2287952	NaN	3271007.2122028	3271007.72872186
54	18	0	0	90	36.1581920903955	36.241610738255	14	0.466734183840454	2	10	1	NaN	2	4	0.231494007595073	0	1	NaN	424	7	46	2	120	220	320	NaN	520	0.439604334998876	2	1	NaN	3271009.1123769	NaN	3271010.0958255	3271010.61234066
54	18	0	0	90	36.1581920903955	36.241610738255	14	0.466734183840454	2	3	5	NaN	1	5	0.231494007595073	0	1	NaN	425	7	47	2	120	220	320	NaN	520	0.065453783608973	2	0	NaN	3271011.8626477	NaN	3271012.8460791	3271013.36260232
54	18	0	0	90	36.1581920903955	36.241610738255	8	0.266705247908831	2	4	1	NaN	1	4	0.231494007595073	0	1	NaN	426	7	48	2	120	220	320	NaN	520	1.41645258339122	2	0	NaN	3271014.8795876	NaN	3271015.8630261	3271016.37956592
54	18	0	0	90	36.1581920903955	36.241610738255	15	0.500072339829058	2	5	5	NaN	1	3	0.231494007595073	0	1	NaN	427	7	49	2	120	220	320	NaN	520	0.0987377860583365	2	0	NaN	3271018.613309	NaN	3271019.5967024	3271020.11327101
54	18	0	0	90	36.1581920903955	36.241610738255	9	0.300043403897435	2	2	4	NaN	1	4	0.231494007595073	0	1	NaN	428	7	50	2	120	220	320	NaN	520	0.010407883208245	1	1	NaN	3271021.0300991	NaN	3271022.0137024	3271022.53017742
54	18	0	0	90	36.1581920903955	36.241610738255	12	0.400057871863246	2	2	2	NaN	1	5	0.231494007595073	0	1	NaN	429	7	51	2	120	220	320	NaN	520	0.0104089835658669	1	1	NaN	3271023.5470129	NaN	3271024.5305146	3271025.04708802
54	18	0	0	90	36.1581920903955	36.241610738255	19	0.633424963783473	2	12	3	NaN	2	3	0.231494007595073	0	1	NaN	430	7	52	2	120	220	320	NaN	520	0.0104268323630095	2	1	NaN	3271025.8640493	NaN	3271026.8474492	3271027.36398597
54	18	0	0	90	36.1581920903955	36.241610738255	6	0.200028935931623	2	6	2	NaN	1	3	0.231494007595073	0	1	NaN	431	7	53	2	120	220	320	NaN	520	0.0103874350897968	1	1	NaN	3271028.1809287	NaN	3271029.1643233	3271029.68087656
54	18	0	0	90	36.1581920903955	36.241610738255	23	0.766777587737888	2	4	3	NaN	1	4	0.231494007595073	0	1	NaN	432	7	54	2	120	220	320	NaN	520	0.310192291624844	2	0	NaN	3271030.4978387	NaN	3271031.4812554	3271031.99776841
54	18	0	0	90	36.1581920903955	36.241610738255	9	0.300043403897435	2	3	3	NaN	1	5	0.231494007595073	0	1	NaN	433	7	55	2	120	220	320	NaN	520	0.0103905349969864	1	1	NaN	3271033.1146345	NaN	3271034.0981515	3271034.61469596
54	18	0	0	90	36.1581920903955	36.241610738255	18	0.600086807794869	2	8	4	NaN	2	4	0.231494007595073	0	1	NaN	434	7	56	2	120	220	320	NaN	520	0.704474535305053	1	0	NaN	3271035.4316374	NaN	3271036.4150278	3271036.93158196
54	18	0	0	90	36.1581920903955	36.241610738255	23	0.766777587737888	2	5	3	NaN	1	5	0.231494007595073	0	1	NaN	435	7	57	2	120	220	320	NaN	520	0.0104028834030032	1	1	NaN	3271038.4485827	NaN	3271039.4320385	3271039.94854612
54	18	0	0	90	36.1581920903955	36.241610738255	0	0	1	9	6	NaN	2	3	0.231494007595073	0	1	NaN	436	7	58	2	110	210	310	NaN	510	1.09874203521758	1	0	NaN	3271040.7654805	NaN	3271041.7489286	3271042.26545096
54	18	0	0	90	36.1581920903955	36.241610738255	24	0.800115743726492	2	11	5	NaN	2	3	0.231494007595073	0	1	NaN	437	7	59	2	120	220	320	NaN	520	3.26546903513372	1	0	NaN	3271044.1823719	NaN	3271045.1658964	3271045.68244876
54	18	0	0	90	36.1581920903955	36.241610738255	17	0.566748651806265	2	7	5	NaN	2	4	0.231494007595073	0	1	NaN	438	7	60	2	120	220	320	NaN	520	2.08187553519383	1	0	NaN	3271049.7663602	NaN	3271050.7497791	3271051.26633316
54	18	0	0	90	36.1581920903955	36.241610738255	20	0.666763119772077	2	7	2	NaN	2	5	0.231494007595073	0	1	NaN	439	7	61	2	120	220	320	NaN	520	0.0104073835536838	2	1	NaN	3271054.5835252	NaN	3271055.5669157	3271056.08346232
54	18	0	0	90	36.1581920903955	36.241610738255	7	0.233367091920227	2	6	4	NaN	1	5	0.231494007595073	0	1	NaN	440	7	62	2	120	220	320	NaN	520	0.010281094815582	1	1	NaN	3271056.9003675	NaN	3271057.88382	3271058.40036391
54	18	0	0	90	36.1581920903955	36.241610738255	20	0.666763119772077	2	12	3	NaN	2	3	0.231494007595073	0	1	NaN	441	7	63	2	120	220	320	NaN	520	0.0103897349908948	2	1	NaN	3271059.2339734	NaN	3271060.2173604	3271060.73392827
54	18	0	0	90	36.1581920903955	36.241610738255	22	0.733439431749284	2	8	5	NaN	2	3	0.231494007595073	0	1	NaN	442	8	1	2	120	220	320	NaN	520	0.756314035039395	2	1	NaN	3271063.6677207	NaN	3271064.6511439	3271065.16769707
54	18	0	0	90	36.1581920903955	36.241610738255	20	0.666763119772077	2	2	6	NaN	1	3	0.231494007595073	0	1	NaN	443	8	2	2	120	220	320	NaN	520	0.0272875460796058	1	1	NaN	3271067.8848109	NaN	3271068.8682265	3271069.38477805
54	18	0	0	90	36.1581920903955	36.241610738255	22	0.733439431749284	2	4	6	NaN	1	3	0.231494007595073	0	1	NaN	444	8	3	2	120	220	320	NaN	520	0.0103890355676413	1	1	NaN	3271070.2182793	NaN	3271071.2018031	3271071.71833906
54	18	0	0	90	36.1581920903955	36.241610738255	12	0.400057871863246	2	12	6	NaN	2	3	0.231494007595073	0	1	NaN	445	8	4	2	120	220	320	NaN	520	0.71285048360005	1	0	NaN	3271072.5352818	NaN	3271073.5186618	3271074.03522662
54	18	0	0	90	36.1581920903955	36.241610738255	12	0.400057871863246	2	6	5	NaN	1	3	0.231494007595073	0	1	NaN	446	8	5	2	120	220	320	NaN	520	0.0103915352374315	2	0	NaN	3271075.5689189	NaN	3271076.5523101	3271077.06886596
54	18	0	0	90	36.1581920903955	36.241610738255	11	0.366719715874642	2	1	1	NaN	1	5	0.231494007595073	0	1	NaN	447	8	6	2	120	220	320	NaN	520	1.36166128376499	2	0	NaN	3271077.902507	NaN	3271078.8858805	3271079.40242592
54	18	0	0	90	36.1581920903955	36.241610738255	20	0.666763119772077	2	7	1	NaN	2	5	0.231494007595073	0	1	NaN	448	8	7	2	120	220	320	NaN	520	1.30192253552377	2	1	NaN	3271081.5861398	NaN	3271082.5695813	3271083.08611796
54	18	0	0	90	36.1581920903955	36.241610738255	25	0.833453899715096	2	5	4	NaN	1	4	0.231494007595073	0	1	NaN	449	8	8	2	120	220	320	NaN	520	0.765616883523762	2	0	NaN	3271085.5865442	NaN	3271086.5699632	3271087.08651962
54	18	0	0	90	36.1581920903955	36.241610738255	24	0.800115743726492	2	9	6	NaN	2	4	0.231494007595073	0	1	NaN	450	8	9	2	120	220	320	NaN	520	1.36995103489608	2	1	NaN	3271088.6702028	NaN	3271089.6535977	3271090.17014547
54	18	0	0	90	36.1581920903955	36.241610738255	13	0.43339602785185	2	12	3	NaN	2	5	0.231494007595073	0	1	NaN	451	8	10	2	120	220	320	NaN	520	0.0104064838960767	2	1	NaN	3271092.3537607	NaN	3271093.337294	3271093.85383962
54	18	0	0	90	36.1581920903955	36.241610738255	8	0.266705247908831	2	6	5	NaN	1	3	0.231494007595073	0	1	NaN	452	8	11	2	120	220	320	NaN	520	0.617463435046375	1	1	NaN	3271094.670646	NaN	3271095.654251	3271096.17074016
54	18	0	0	90	36.1581920903955	36.241610738255	10	0.333381559886038	2	2	5	NaN	1	5	0.231494007595073	0	1	NaN	453	8	12	2	120	220	320	NaN	520	1.41960433498025	2	0	NaN	3271097.604289	NaN	3271098.5878102	3271099.10436676
54	18	0	0	90	36.1581920903955	36.241610738255	13	0.43339602785185	2	6	1	NaN	1	5	0.231494007595073	0	1	NaN	454	8	13	2	120	220	320	NaN	520	0.542158083058894	2	0	NaN	3271101.3379825	NaN	3271102.3215242	3271102.83805642
54	18	0	0	90	36.1581920903955	36.241610738255	6	0.200028935931623	2	1	2	NaN	1	4	0.231494007595073	0	1	NaN	455	8	14	2	120	220	320	NaN	520	0.0104048834182322	1	1	NaN	3271104.1883915	NaN	3271105.1718636	3271105.68833512
54	18	0	0	90	36.1581920903955	36.241610738255	25	0.833453899715096	2	2	1	NaN	1	5	0.231494007595073	0	1	NaN	456	8	15	2	120	220	320	NaN	520	0.0103921350091696	1	1	NaN	3271106.5051403	NaN	3271107.4886962	3271108.00523636
54	18	0	0	90	36.1581920903955	36.241610738255	15	0.500072339829058	2	9	5	NaN	2	3	0.231494007595073	0	1	NaN	457	8	16	2	120	220	320	NaN	520	0.530465937685221	1	0	NaN	3271108.8221986	NaN	3271109.8055843	3271110.32213056
54	18	0	0	90	36.1581920903955	36.241610738255	13	0.43339602785185	2	3	3	NaN	1	5	0.231494007595073	0	1	NaN	458	8	17	2	120	220	320	NaN	520	0.470404586289078	1	1	NaN	3271112.3058202	NaN	3271113.2892882	3271113.80581021
54	18	0	0	90	36.1581920903955	36.241610738255	7	0.233367091920227	2	6	2	NaN	1	5	0.231494007595073	0	1	NaN	459	8	18	2	120	220	320	NaN	520	0.838740942999721	1	1	NaN	3271115.0894637	NaN	3271116.0728664	3271116.58941086
