subjno	age	gender	isPractice	viewdist	CmToPixX	CmToPixY	SOA_frm	SOA_time	targNum	targID	targExample	targRace	targGender	firstTargPos	contrast	familiarity	curr_staircase	iStair	TrialNum	BlockNum	blktrl	sessionNum	TC_FIXATION	TC_RSVP_START	TC_RSVP_END	TC_BLANK	TC_RESPONSE_ONSET	RT2afc	resp_2afc	acc	RSVPOnsetVBL	RSVPOnsetTime	RSVPOffsetVBL	RSVPOffsetTime	startrt_2afc
7	20	1	0	90	36.1581920903955	36.241610738255	25	0.83345209993422	2	8	3	NaN	2	3	0.0371220176202853	0	1	NaN	1	1	1	1	120	220	320	NaN	520	0.365132934879512	2	1	NaN	3107401.2159971	NaN	3107402.1992651	3107402.73237227
7	20	1	0	90	36.1581920903955	36.241610738255	6	0.200028503984213	2	9	3	NaN	2	5	0.0371220176202853	0	1	NaN	2	1	2	1	120	220	320	NaN	520	0.215598685666919	2	1	NaN	3107403.9494947	NaN	3107404.9328986	3107405.46598001
7	20	1	0	90	36.1581920903955	36.241610738255	24	0.800114015936851	2	5	6	NaN	1	4	0.0371220176202853	0	1	NaN	3	1	3	1	120	220	320	NaN	520	0.250091372057796	1	1	NaN	3107406.4996318	NaN	3107407.4830021	3107407.99956173
7	20	1	0	90	36.1581920903955	36.241610738255	18	0.600085511952639	2	10	5	NaN	2	3	0.0371220176202853	0	1	NaN	4	1	4	1	120	220	320	NaN	520	0.275130645837635	1	0	NaN	3107409.0664163	NaN	3107410.0499298	3107410.56648585
7	20	1	0	90	36.1581920903955	36.241610738255	7	0.233366587981582	2	11	1	NaN	2	5	0.0371220176202853	0	1	NaN	5	1	5	1	120	220	320	NaN	520	0.347155585885048	2	1	NaN	3107411.6666601	NaN	3107412.6501914	3107413.16673091
7	20	1	0	90	36.1581920903955	36.241610738255	8	0.26670467197895	2	4	1	NaN	1	3	0.0371220176202853	0	1	NaN	6	1	6	1	120	220	320	NaN	520	0.384248982649297	1	1	NaN	3107414.3335914	NaN	3107415.3170905	3107415.83366152
7	20	1	0	90	36.1581920903955	36.241610738255	20	0.666761679947376	2	7	6	NaN	2	3	0.0371220176202853	0	1	NaN	7	1	7	1	120	220	320	NaN	520	0.387165034655482	1	0	NaN	3107417.0506455	NaN	3107418.0340548	3107418.55060337
7	20	1	0	90	36.1581920903955	36.241610738255	11	0.366718923971057	2	9	1	NaN	2	3	0.0371220176202853	0	1	NaN	8	1	8	1	120	220	320	NaN	520	0.182358182966709	2	1	NaN	3107419.7675743	NaN	3107420.750989	3107421.26754202
7	20	1	0	90	36.1581920903955	36.241610738255	25	0.83345209993422	2	2	6	NaN	1	3	0.0371220176202853	0	1	NaN	9	1	9	1	120	220	320	NaN	520	0.329759834799916	1	1	NaN	3107422.2677064	NaN	3107423.2512327	3107423.76778727
7	20	1	0	90	36.1581920903955	36.241610738255	17	0.56674742795527	2	3	4	NaN	1	3	0.0371220176202853	0	1	NaN	10	1	10	1	120	220	320	NaN	520	0.319740983191878	2	0	NaN	3107424.9181006	NaN	3107425.9014786	3107426.41803502
7	20	1	0	90	36.1581920903955	36.241610738255	12	0.400057007968426	2	12	4	NaN	2	5	0.0371220176202853	0	1	NaN	11	1	11	1	120	220	320	NaN	520	0.213099634740502	2	1	NaN	3107427.5682257	NaN	3107428.551759	3107429.06831047
7	20	1	0	90	36.1581920903955	36.241610738255	15	0.500071259960532	2	6	5	NaN	1	5	0.0371220176202853	0	1	NaN	12	1	12	1	120	220	320	NaN	520	0.487646135035902	1	1	NaN	3107430.1018073	NaN	3107431.0853365	3107431.60188007
7	20	1	0	90	36.1581920903955	36.241610738255	7	0.233366587981582	2	9	2	NaN	2	3	0.0371220176202853	0	1	NaN	13	1	13	1	120	220	320	NaN	520	0.191661982797086	1	0	NaN	3107432.902214	NaN	3107433.8855979	3107434.40215992
7	20	1	0	90	36.1581920903955	36.241610738255	21	0.700099763944745	2	7	2	NaN	2	3	0.0371220176202853	0	1	NaN	14	1	14	1	120	220	320	NaN	520	0.210826983209699	2	1	NaN	3107435.4191549	NaN	3107436.4025245	3107436.91907432
7	20	1	0	90	36.1581920903955	36.241610738255	23	0.766775931939483	2	7	3	NaN	2	4	0.0371220176202853	0	1	NaN	15	1	15	1	120	220	320	NaN	520	0.204952040221542	2	1	NaN	3107437.9527114	NaN	3107438.9360957	3107439.45266586
7	20	1	0	90	36.1581920903955	36.241610738255	23	0.766775931939483	2	7	6	NaN	2	3	0.0371220176202853	0	1	NaN	16	1	16	1	120	220	320	NaN	520	0.215604131575674	2	1	NaN	3107440.4862881	NaN	3107441.4696885	3107441.98623527
7	20	1	0	90	36.1581920903955	36.241610738255	23	0.766775931939483	2	3	6	NaN	1	3	0.0371220176202853	0	1	NaN	17	1	17	1	120	220	320	NaN	520	0.338060634676367	1	1	NaN	3107443.0197985	NaN	3107444.0033079	3107444.51982187
7	20	1	0	90	36.1581920903955	36.241610738255	15	0.500071259960532	2	2	2	NaN	1	5	0.0371220176202853	0	1	NaN	18	1	18	1	120	220	320	NaN	520	0.20754293166101	1	1	NaN	3107445.6701302	NaN	3107446.6535315	3107447.17008017
7	20	1	0	90	36.1581920903955	36.241610738255	16	0.533409343957901	2	9	5	NaN	2	3	0.0371220176202853	0	1	NaN	19	1	19	1	120	220	320	NaN	520	0.242265683133155	1	0	NaN	3107448.2037284	NaN	3107449.1870965	3107449.70366122
7	20	1	0	90	36.1581920903955	36.241610738255	22	0.733437847942114	2	6	6	NaN	1	4	0.0371220176202853	0	1	NaN	20	1	20	1	120	220	320	NaN	520	0.195249034557492	1	1	NaN	3107450.7706485	NaN	3107451.7540339	3107452.27058827
7	20	1	0	90	36.1581920903955	36.241610738255	22	0.733437847942114	2	8	6	NaN	2	5	0.0371220176202853	0	1	NaN	21	1	21	1	120	220	320	NaN	520	0.261892434675246	2	1	NaN	3107453.2875497	NaN	3107454.2709547	3107454.78750887
7	20	1	0	90	36.1581920903955	36.241610738255	14	0.466733175963163	2	10	4	NaN	2	5	0.0371220176202853	0	1	NaN	22	1	22	1	120	220	320	NaN	520	0.518365583382547	1	0	NaN	3107455.8710171	NaN	3107456.8545366	3107457.37108602
7	20	1	0	90	36.1581920903955	36.241610738255	11	0.366718923971057	2	11	6	NaN	2	3	0.0371220176202853	0	1	NaN	23	1	23	1	120	220	320	NaN	520	0.44516898272559	1	0	NaN	3107458.7047545	NaN	3107459.688155	3107460.20470062
7	20	1	0	90	36.1581920903955	36.241610738255	25	0.83345209993422	2	7	3	NaN	2	3	0.0371220176202853	0	1	NaN	24	1	24	1	120	220	320	NaN	520	0.246260583400726	2	1	NaN	3107461.4717186	NaN	3107462.4550949	3107462.97164072
7	20	1	0	90	36.1581920903955	36.241610738255	20	0.666761679947376	2	6	1	NaN	1	4	0.0371220176202853	0	1	NaN	25	1	25	1	120	220	320	NaN	520	0.319371183402836	1	1	NaN	3107464.0386338	NaN	3107465.0220116	3107465.53855942
7	20	1	0	90	36.1581920903955	36.241610738255	17	0.56674742795527	2	7	1	NaN	2	3	0.0371220176202853	0	1	NaN	26	1	26	1	120	220	320	NaN	520	0.221496634650975	2	1	NaN	3107466.6720755	NaN	3107467.6556012	3107468.17216097
7	20	1	0	90	36.1581920903955	36.241610738255	17	0.56674742795527	2	11	1	NaN	2	5	0.0371220176202853	0	1	NaN	27	1	27	1	120	220	320	NaN	520	0.208148934878409	2	1	NaN	3107469.2056623	NaN	3107470.1891872	3107470.70574277
7	20	1	0	90	36.1581920903955	36.241610738255	18	0.600085511952639	2	12	4	NaN	2	5	0.0371220176202853	0	1	NaN	28	1	28	1	120	220	320	NaN	520	0.23461208306253	2	1	NaN	3107471.7393576	NaN	3107472.7227692	3107473.23931332
7	20	1	0	90	36.1581920903955	36.241610738255	18	0.600085511952639	2	3	2	NaN	1	5	0.0371220176202853	0	1	NaN	29	1	29	1	120	220	320	NaN	520	0.132316634990275	1	1	NaN	3107474.2896207	NaN	3107475.2730159	3107475.78956837
7	20	1	0	90	36.1581920903955	36.241610738255	8	0.26670467197895	2	11	6	NaN	2	3	0.0371220176202853	0	1	NaN	30	1	30	1	120	220	320	NaN	520	0.337518882937729	2	1	NaN	3107476.7397306	NaN	3107477.7232505	3107478.23981292
7	20	1	0	90	36.1581920903955	36.241610738255	13	0.433395091965795	2	9	4	NaN	2	3	0.0371220176202853	0	1	NaN	31	1	31	1	120	220	320	NaN	520	0.222949434537441	2	1	NaN	3107479.4067947	NaN	3107480.3901941	3107480.90673637
7	20	1	0	90	36.1581920903955	36.241610738255	10	0.333380839973688	2	2	1	NaN	1	4	0.0371220176202853	0	1	NaN	32	1	32	1	120	220	320	NaN	520	0.222570683341473	2	0	NaN	3107482.4070786	NaN	3107483.3904892	3107483.90704292
7	20	1	0	90	36.1581920903955	36.241610738255	17	0.56674742795527	2	10	2	NaN	2	3	0.0371220176202853	0	1	NaN	33	1	33	1	120	220	320	NaN	520	0.217053434811532	2	1	NaN	3107484.9407008	NaN	3107485.9241156	3107486.44062317
7	20	1	0	90	36.1581920903955	36.241610738255	16	0.533409343957901	2	6	1	NaN	1	4	0.0371220176202853	0	1	NaN	34	1	34	1	120	220	320	NaN	520	0.30728018283844	1	1	NaN	3107487.47425	NaN	3107488.4575438	3107488.97420902
7	20	1	0	90	36.1581920903955	36.241610738255	24	0.800114015936851	2	12	1	NaN	2	4	0.0371220176202853	0	1	NaN	35	1	35	1	120	220	320	NaN	520	0.433839034754783	2	1	NaN	3107490.1078425	NaN	3107491.0912496	3107491.60779597
7	20	1	0	90	36.1581920903955	36.241610738255	10	0.333380839973688	2	12	6	NaN	2	4	0.0371220176202853	0	1	NaN	36	1	36	1	120	220	320	NaN	520	0.349366388749331	2	1	NaN	3107493.0080115	NaN	3107493.991527	3107494.50808081
7	20	1	0	90	36.1581920903955	36.241610738255	9	0.300042755976319	2	5	6	NaN	1	3	0.0371220176202853	0	1	NaN	37	1	37	1	120	220	320	NaN	520	0.218813634943217	1	1	NaN	3107495.6749924	NaN	3107496.6584658	3107497.17501447
7	20	1	0	90	36.1581920903955	36.241610738255	7	0.233366587981582	2	6	5	NaN	1	5	0.0371220176202853	0	1	NaN	38	1	38	1	120	220	320	NaN	520	0.42105363169685	1	1	NaN	3107498.2086356	NaN	3107499.1920354	3107499.70858467
7	20	1	0	90	36.1581920903955	36.241610738255	25	0.83345209993422	2	1	3	NaN	1	4	0.0371220176202853	0	1	NaN	39	1	39	1	120	220	320	NaN	520	1.15975153446198	2	0	NaN	3107500.9422442	NaN	3107501.925642	3107502.44219787
7	20	1	0	90	36.1581920903955	36.241610738255	10	0.333380839973688	2	4	2	NaN	1	5	0.0371220176202853	0	1	NaN	40	1	40	1	120	220	320	NaN	520	1.85245968261734	1	1	NaN	3107504.4092488	NaN	3107505.3926569	3107505.90920782
7	20	1	0	90	36.1581920903955	36.241610738255	6	0.200028503984213	2	7	2	NaN	2	5	0.0371220176202853	0	1	NaN	41	1	41	1	120	220	320	NaN	520	0.309214634820819	2	1	NaN	3107508.576323	NaN	3107509.5597408	3107510.07628127
7	20	1	0	90	36.1581920903955	36.241610738255	21	0.700099763944745	2	3	2	NaN	1	4	0.0371220176202853	0	1	NaN	42	1	42	1	120	220	320	NaN	520	0.203899632208049	1	1	NaN	3107511.2098207	NaN	3107512.1933044	3107512.70986857
7	20	1	0	90	36.1581920903955	36.241610738255	12	0.400057007968426	2	1	6	NaN	1	3	0.0371220176202853	0	1	NaN	43	1	43	1	120	220	320	NaN	520	0.678829140495509	2	0	NaN	3107513.7268366	NaN	3107514.7102309	3107515.22679116
7	20	1	0	90	36.1581920903955	36.241610738255	8	0.26670467197895	2	8	2	NaN	2	3	0.0371220176202853	0	1	NaN	44	1	44	1	120	220	320	NaN	520	0.27895403187722	2	1	NaN	3107516.7271427	NaN	3107517.7105179	3107518.22707587
7	20	1	0	90	36.1581920903955	36.241610738255	11	0.366718923971057	2	7	5	NaN	2	5	0.0371220176202853	0	1	NaN	45	1	45	1	120	220	320	NaN	520	0.262390083167702	1	0	NaN	3107519.3273669	NaN	3107520.3107722	3107520.82733842
7	20	1	0	90	36.1581920903955	36.241610738255	19	0.633423595950007	2	11	5	NaN	2	3	0.0371220176202853	0	1	NaN	46	1	46	1	120	220	320	NaN	520	0.286837283056229	2	1	NaN	3107521.9109651	NaN	3107522.8943676	3107523.41091962
7	20	1	0	90	36.1581920903955	36.241610738255	14	0.466733175963163	2	11	4	NaN	2	4	0.0371220176202853	0	1	NaN	47	1	47	1	120	220	320	NaN	520	0.35013563465327	2	1	NaN	3107525.1278382	NaN	3107526.1113968	3107526.62791327
7	20	1	0	90	36.1581920903955	36.241610738255	16	0.533409343957901	2	10	1	NaN	2	5	0.0371220176202853	0	1	NaN	48	1	48	1	120	220	320	NaN	520	2.13075683731586	1	0	NaN	3107527.7947727	NaN	3107528.7782846	3107529.29484206
7	20	1	0	90	36.1581920903955	36.241610738255	13	0.433395091965795	2	12	1	NaN	2	3	0.0371220176202853	0	1	NaN	49	1	49	1	120	220	320	NaN	520	0.248661083169281	2	1	NaN	3107532.2453153	NaN	3107533.22873	3107533.74528342
7	20	1	0	90	36.1581920903955	36.241610738255	6	0.200028503984213	2	8	4	NaN	2	5	0.0371220176202853	0	1	NaN	50	1	50	1	120	220	320	NaN	520	0.249832683242857	1	0	NaN	3107534.8122512	NaN	3107535.7956484	3107536.31220122
7	20	1	0	90	36.1581920903955	36.241610738255	17	0.56674742795527	2	9	2	NaN	2	5	0.0371220176202853	0	1	NaN	51	1	51	1	120	220	320	NaN	520	0.178913734853268	2	1	NaN	3107537.3791687	NaN	3107538.3625513	3107538.87911647
7	20	1	0	90	36.1581920903955	36.241610738255	22	0.733437847942114	2	3	2	NaN	1	3	0.0371220176202853	0	1	NaN	52	1	52	1	120	220	320	NaN	520	0.406211982946843	1	1	NaN	3107539.8793398	NaN	3107540.8628153	3107541.37935562
7	20	1	0	90	36.1581920903955	36.241610738255	19	0.633423595950007	2	8	6	NaN	2	4	0.0371220176202853	0	1	NaN	53	1	53	1	120	220	320	NaN	520	0.0173591347411275	1	0	NaN	3107542.596342	NaN	3107543.5797481	3107544.09629877
7	20	1	0	90	36.1581920903955	36.241610738255	22	0.733437847942114	2	7	6	NaN	2	3	0.0371220176202853	0	1	NaN	54	1	54	1	120	220	320	NaN	520	0.284051131922752	2	1	NaN	3107544.9299261	NaN	3107545.9133001	3107546.42986177
7	20	1	0	90	36.1581920903955	36.241610738255	7	0.233366587981582	2	12	4	NaN	2	4	0.0371220176202853	0	1	NaN	55	1	55	1	120	220	320	NaN	520	0.276030391454697	2	1	NaN	3107547.5301571	NaN	3107548.5135613	3107549.03011351
7	20	1	0	90	36.1581920903955	36.241610738255	20	0.666761679947376	2	11	4	NaN	2	3	0.0371220176202853	0	1	NaN	56	1	56	1	120	220	320	NaN	520	0.259934782981873	2	1	NaN	3107550.1137702	NaN	3107551.0971496	3107551.61369542
7	20	1	0	90	36.1581920903955	36.241610738255	16	0.533409343957901	2	1	6	NaN	1	3	0.0371220176202853	0	1	NaN	57	1	57	1	120	220	320	NaN	520	0.381059134844691	2	0	NaN	3107552.6806756	NaN	3107553.6640792	3107554.18062497
7	20	1	0	90	36.1581920903955	36.241610738255	19	0.633423595950007	2	6	6	NaN	1	4	0.0371220176202853	0	1	NaN	58	1	58	1	120	220	320	NaN	520	0.233816785737872	1	1	NaN	3107555.364277	NaN	3107556.3476503	3107556.86421511
7	20	1	0	90	36.1581920903955	36.241610738255	16	0.533409343957901	2	2	4	NaN	1	4	0.0371220176202853	0	1	NaN	59	1	59	1	120	220	320	NaN	520	0.275625834707171	1	1	NaN	3107557.9145238	NaN	3107558.897924	3107559.41446687
7	20	1	0	90	36.1581920903955	36.241610738255	11	0.366718923971057	2	2	2	NaN	1	3	0.0371220176202853	0	1	NaN	60	1	60	1	120	220	320	NaN	520	0.265959083102643	1	1	NaN	3107560.9480271	NaN	3107561.9315525	3107562.44810132
7	20	1	0	90	36.1581920903955	36.241610738255	11	0.366718923971057	2	3	2	NaN	1	5	0.0371220176202853	0	1	NaN	61	1	61	1	120	220	320	NaN	520	0.226138734258711	1	1	NaN	3107563.5317404	NaN	3107564.5151538	3107565.03169067
7	20	1	0	90	36.1581920903955	36.241610738255	22	0.733437847942114	2	6	4	NaN	1	5	0.0371220176202853	0	1	NaN	62	1	62	1	120	220	320	NaN	520	0.331906483042985	2	0	NaN	3107566.0820054	NaN	3107567.065377	3107567.58194172
7	20	1	0	90	36.1581920903955	36.241610738255	22	0.733437847942114	2	2	6	NaN	1	4	0.0371220176202853	0	1	NaN	63	1	63	1	120	220	320	NaN	520	0.250108493957669	2	0	NaN	3107568.7155753	NaN	3107569.6989821	3107570.21554331
7	20	1	0	90	36.1581920903955	36.241610738255	10	0.333380839973688	2	5	5	NaN	1	5	0.0371220176202853	0	1	NaN	64	2	1	1	120	220	320	NaN	520	0.224243582691997	1	1	NaN	3107578.7499012	NaN	3107579.7333022	3107580.24985092
7	20	1	0	90	36.1581920903955	36.241610738255	0	0	1	1	1	NaN	1	4	0.0371220176202853	0	1	NaN	65	2	2	1	110	210	310	NaN	510	0.202598731964827	1	1	NaN	3107581.283418	NaN	3107582.2669273	3107582.78343187
7	20	1	0	90	36.1581920903955	36.241610738255	24	0.800114015936851	2	8	2	NaN	2	3	0.0371220176202853	0	1	NaN	66	2	3	1	120	220	320	NaN	520	0.0614025346003473	2	1	NaN	3107583.8004389	NaN	3107584.7838045	3107585.30035807
7	20	1	0	90	36.1581920903955	36.241610738255	19	0.633423595950007	2	7	5	NaN	2	4	0.0371220176202853	0	1	NaN	67	2	4	1	120	220	320	NaN	520	0.238518182653934	2	1	NaN	3107586.167297	NaN	3107587.1507039	3107587.66725122
7	20	1	0	90	36.1581920903955	36.241610738255	16	0.533409343957901	2	10	3	NaN	2	4	0.0371220176202853	0	1	NaN	68	2	5	1	120	220	320	NaN	520	0.288578985724598	2	1	NaN	3107588.7175569	NaN	3107589.7009316	3107590.21750881
7	20	1	0	90	36.1581920903955	36.241610738255	17	0.56674742795527	2	9	3	NaN	2	5	0.0371220176202853	0	1	NaN	69	2	6	1	120	220	320	NaN	520	1.12838898319751	2	1	NaN	3107591.317811	NaN	3107592.301177	3107592.81775922
7	20	1	0	90	36.1581920903955	36.241610738255	25	0.83345209993422	2	9	2	NaN	2	4	0.0371220176202853	0	1	NaN	70	2	7	1	120	220	320	NaN	520	0.23797803465277	2	1	NaN	3107594.7681428	NaN	3107595.7515506	3107596.26809987
7	20	1	0	90	36.1581920903955	36.241610738255	6	0.200028503984213	2	5	4	NaN	1	4	0.0371220176202853	0	1	NaN	71	2	8	1	120	220	320	NaN	520	0.231376782990992	1	1	NaN	3107597.3183862	NaN	3107598.3017909	3107598.81836432
7	20	1	0	90	36.1581920903955	36.241610738255	7	0.233366587981582	2	1	4	NaN	1	3	0.0371220176202853	0	1	NaN	72	2	9	1	120	220	320	NaN	520	0.0418092347681522	1	1	NaN	3107599.8519952	NaN	3107600.8353904	3107601.35193457
7	20	1	0	90	36.1581920903955	36.241610738255	16	0.533409343957901	2	7	1	NaN	2	3	0.0371220176202853	0	1	NaN	73	2	10	1	120	220	320	NaN	520	0.259977383073419	2	1	NaN	3107602.2020808	NaN	3107603.1856143	3107603.70215822
7	20	1	0	90	36.1581920903955	36.241610738255	17	0.56674742795527	2	4	6	NaN	1	3	0.0371220176202853	0	1	NaN	74	2	11	1	120	220	320	NaN	520	0.309023034758866	1	1	NaN	3107604.7691407	NaN	3107605.7525584	3107606.26908697
7	20	1	0	90	36.1581920903955	36.241610738255	20	0.666761679947376	2	1	4	NaN	1	4	0.0371220176202853	0	1	NaN	75	2	12	1	120	220	320	NaN	520	0.24370653508231	2	0	NaN	3107607.3860803	NaN	3107608.3694467	3107608.88601277
7	20	1	0	90	36.1581920903955	36.241610738255	21	0.700099763944745	2	11	1	NaN	2	3	0.0371220176202853	0	1	NaN	76	2	13	1	120	220	320	NaN	520	0.213547634426504	1	0	NaN	3107609.9361841	NaN	3107610.9197078	3107611.43626317
7	20	1	0	90	36.1581920903955	36.241610738255	14	0.466733175963163	2	10	4	NaN	2	4	0.0371220176202853	0	1	NaN	77	2	14	1	120	220	320	NaN	520	0.201073945499957	2	1	NaN	3107612.453113	NaN	3107613.4366257	3107613.95317895
7	20	1	0	90	36.1581920903955	36.241610738255	21	0.700099763944745	2	1	6	NaN	1	3	0.0371220176202853	0	1	NaN	78	2	15	1	120	220	320	NaN	520	0.0998405828140676	2	0	NaN	3107614.9701361	NaN	3107615.9535418	3107616.47009342
7	20	1	0	90	36.1581920903955	36.241610738255	14	0.466733175963163	2	2	5	NaN	1	5	0.0371220176202853	0	1	NaN	79	2	16	1	120	220	320	NaN	520	0.274900382850319	1	1	NaN	3107617.3870831	NaN	3107618.3704332	3107618.88699252
7	20	1	0	90	36.1581920903955	36.241610738255	21	0.700099763944745	2	10	5	NaN	2	5	0.0371220176202853	0	1	NaN	80	2	17	1	120	220	320	NaN	520	0.771110334899276	1	0	NaN	3107619.970635	NaN	3107620.9540144	3107621.47058697
7	20	1	0	90	36.1581920903955	36.241610738255	14	0.466733175963163	2	12	2	NaN	2	4	0.0371220176202853	0	1	NaN	81	2	18	1	120	220	320	NaN	520	0.0156585830263793	1	0	NaN	3107623.0541494	NaN	3107624.0376883	3107624.55421662
7	20	1	0	90	36.1581920903955	36.241610738255	9	0.300042755976319	2	1	1	NaN	1	5	0.0371220176202853	0	1	NaN	82	2	19	1	120	220	320	NaN	520	0.218378982972354	1	1	NaN	3107625.3878353	NaN	3107626.3712822	3107626.88777862
7	20	1	0	90	36.1581920903955	36.241610738255	10	0.333380839973688	2	9	5	NaN	2	4	0.0371220176202853	0	1	NaN	83	2	20	1	120	220	320	NaN	520	0.188847186043859	1	0	NaN	3107627.9212904	NaN	3107628.9048044	3107629.42136871
7	20	1	0	90	36.1581920903955	36.241610738255	6	0.200028503984213	2	10	6	NaN	2	3	0.0371220176202853	0	1	NaN	84	2	21	1	120	220	320	NaN	520	0.19247943488881	1	0	NaN	3107630.4216829	NaN	3107631.4050622	3107631.92161507
7	20	1	0	90	36.1581920903955	36.241610738255	24	0.800114015936851	2	1	2	NaN	1	5	0.0371220176202853	0	1	NaN	85	2	22	1	120	220	320	NaN	520	0.236366935074329	2	0	NaN	3107632.9219069	NaN	3107633.905336	3107634.42185037
7	20	1	0	90	36.1581920903955	36.241610738255	23	0.766775931939483	2	4	2	NaN	1	3	0.0371220176202853	0	1	NaN	86	2	23	1	120	220	320	NaN	520	0.246082434430718	1	1	NaN	3107635.4721479	NaN	3107636.4555329	3107636.97209957
7	20	1	0	90	36.1581920903955	36.241610738255	18	0.600085511952639	2	1	5	NaN	1	4	0.0371220176202853	0	1	NaN	87	2	24	1	120	220	320	NaN	520	0.207892682868987	1	1	NaN	3107638.0223924	NaN	3107639.0058059	3107639.52235652
7	20	1	0	90	36.1581920903955	36.241610738255	25	0.83345209993422	2	9	3	NaN	2	4	0.0371220176202853	0	1	NaN	88	2	25	1	120	220	320	NaN	520	0.106350634712726	1	0	NaN	3107640.539323	NaN	3107641.52272	3107642.03927537
7	20	1	0	90	36.1581920903955	36.241610738255	20	0.666761679947376	2	6	2	NaN	1	3	0.0371220176202853	0	1	NaN	89	2	26	1	120	220	320	NaN	520	0.161044845823199	1	1	NaN	3107642.9728954	NaN	3107643.9563051	3107644.47285685
7	20	1	0	90	36.1581920903955	36.241610738255	16	0.533409343957901	2	5	3	NaN	1	3	0.0371220176202853	0	1	NaN	90	2	27	1	120	220	320	NaN	520	0.125570277683437	1	1	NaN	3107645.4564793	NaN	3107646.4398487	3107646.95642672
7	20	1	0	90	36.1581920903955	36.241610738255	14	0.466733175963163	2	5	2	NaN	1	4	0.0371220176202853	0	1	NaN	91	2	28	1	120	220	320	NaN	520	0.187436283100396	2	0	NaN	3107647.9067269	NaN	3107648.8901365	3107649.40666072
7	20	1	0	90	36.1581920903955	36.241610738255	8	0.26670467197895	2	6	2	NaN	1	3	0.0371220176202853	0	1	NaN	92	2	29	1	120	220	320	NaN	520	0.327309434767812	1	1	NaN	3107650.406986	NaN	3107651.390327	3107651.90691417
7	20	1	0	90	36.1581920903955	36.241610738255	22	0.733437847942114	2	7	1	NaN	2	5	0.0371220176202853	0	1	NaN	93	2	30	1	120	220	320	NaN	520	0.356598034501076	2	1	NaN	3107653.0572435	NaN	3107654.0406158	3107654.55717117
7	20	1	0	90	36.1581920903955	36.241610738255	14	0.466733175963163	2	4	5	NaN	1	3	0.0371220176202853	0	1	NaN	94	2	31	1	120	220	320	NaN	520	0.29762023454532	1	1	NaN	3107655.7241497	NaN	3107656.7075524	3107657.22410407
7	20	1	0	90	36.1581920903955	36.241610738255	7	0.233366587981582	2	10	6	NaN	2	5	0.0371220176202853	0	1	NaN	95	2	32	1	120	220	320	NaN	520	0.17661929409951	1	0	NaN	3107658.3410648	NaN	3107659.3244737	3107659.84103031
7	20	1	0	90	36.1581920903955	36.241610738255	9	0.300042755976319	2	11	5	NaN	2	5	0.0371220176202853	0	1	NaN	96	2	33	1	120	220	320	NaN	520	0.245414685923606	2	1	NaN	3107660.8245161	NaN	3107661.8081006	3107662.32459581
7	20	1	0	90	36.1581920903955	36.241610738255	7	0.233366587981582	2	9	6	NaN	2	5	0.0371220176202853	0	1	NaN	97	2	34	1	120	220	320	NaN	520	0.222725686151534	2	1	NaN	3107663.3915793	NaN	3107664.3749739	3107664.89152671
7	20	1	0	90	36.1581920903955	36.241610738255	14	0.466733175963163	2	5	6	NaN	1	3	0.0371220176202853	0	1	NaN	98	2	35	1	120	220	320	NaN	520	0.33698893757537	1	1	NaN	3107665.9251713	NaN	3107666.9085573	3107667.42511096
7	20	1	0	90	36.1581920903955	36.241610738255	16	0.533409343957901	2	5	5	NaN	1	4	0.0371220176202853	0	1	NaN	99	2	36	1	120	220	320	NaN	520	0.542478894349188	2	0	NaN	3107668.5754152	NaN	3107669.5588489	3107670.07536511
7	20	1	0	90	36.1581920903955	36.241610738255	0	0	1	11	3	NaN	2	3	0.0371220176202853	0	1	NaN	100	2	37	1	110	210	310	NaN	510	0.300489834975451	2	1	NaN	3107671.4256086	NaN	3107672.4090882	3107672.92564397
7	20	1	0	90	36.1581920903955	36.241610738255	21	0.700099763944745	2	2	1	NaN	1	5	0.0371220176202853	0	1	NaN	101	2	38	1	120	220	320	NaN	520	0.212387282866985	1	1	NaN	3107674.0258025	NaN	3107675.0093445	3107675.52590042
7	20	1	0	90	36.1581920903955	36.241610738255	24	0.800114015936851	2	4	1	NaN	1	5	0.0371220176202853	0	1	NaN	102	2	39	1	120	220	320	NaN	520	0.254357134923339	1	1	NaN	3107676.559577	NaN	3107677.5429617	3107678.05948377
7	20	1	0	90	36.1581920903955	36.241610738255	16	0.533409343957901	2	7	6	NaN	2	5	0.0371220176202853	0	1	NaN	103	2	40	1	120	220	320	NaN	520	0.215774485841393	1	0	NaN	3107679.1264469	NaN	3107680.1098486	3107680.62640601
7	20	1	0	90	36.1581920903955	36.241610738255	0	0	1	10	1	NaN	2	5	0.0371220176202853	0	1	NaN	104	2	41	1	110	210	310	NaN	510	0.178255380596966	2	1	NaN	3107681.6600376	NaN	3107682.6434298	3107683.15997872
7	20	1	0	90	36.1581920903955	36.241610738255	14	0.466733175963163	2	9	5	NaN	2	4	0.0371220176202853	0	1	NaN	105	2	42	1	120	220	320	NaN	520	0.24675123160705	2	1	NaN	3107684.1434898	NaN	3107685.1270054	3107685.64355657
7	20	1	0	90	36.1581920903955	36.241610738255	7	0.233366587981582	2	7	5	NaN	2	4	0.0371220176202853	0	1	NaN	106	2	43	1	120	220	320	NaN	520	0.31979253469035	2	1	NaN	3107686.7105395	NaN	3107687.6939179	3107688.21047827
7	20	1	0	90	36.1581920903955	36.241610738255	20	0.666761679947376	2	4	5	NaN	1	3	0.0371220176202853	0	1	NaN	107	2	44	1	120	220	320	NaN	520	0.478131285868585	2	0	NaN	3107689.3441409	NaN	3107690.3275292	3107690.84407091
7	20	1	0	90	36.1581920903955	36.241610738255	20	0.666761679947376	2	9	2	NaN	2	5	0.0371220176202853	0	1	NaN	108	2	45	1	120	220	320	NaN	520	0.365626083221287	2	1	NaN	3107692.1443933	NaN	3107693.1278	3107693.64435112
7	20	1	0	90	36.1581920903955	36.241610738255	12	0.400057007968426	2	11	6	NaN	2	3	0.0371220176202853	0	1	NaN	109	2	46	1	120	220	320	NaN	520	0.281914483290166	2	1	NaN	3107694.8280075	NaN	3107695.8113977	3107696.32794312
7	20	1	0	90	36.1581920903955	36.241610738255	20	0.666761679947376	2	10	6	NaN	2	5	0.0371220176202853	0	1	NaN	110	2	47	1	120	220	320	NaN	520	0.329805485904217	1	0	NaN	3107697.4282491	NaN	3107698.4116498	3107698.92821191
7	20	1	0	90	36.1581920903955	36.241610738255	8	0.26670467197895	2	8	4	NaN	2	3	0.0371220176202853	0	1	NaN	111	2	48	1	120	220	320	NaN	520	0.304123882669955	2	1	NaN	3107700.061716	NaN	3107701.0452482	3107701.56181362
7	20	1	0	90	36.1581920903955	36.241610738255	25	0.83345209993422	2	3	4	NaN	1	4	0.0371220176202853	0	1	NaN	112	2	49	1	120	220	320	NaN	520	0.391500434838235	2	0	NaN	3107702.6787981	NaN	3107703.6621502	3107704.17872577
7	20	1	0	90	36.1581920903955	36.241610738255	18	0.600085511952639	2	5	5	NaN	1	4	0.0371220176202853	0	1	NaN	113	2	50	1	120	220	320	NaN	520	0.315009434707463	1	1	NaN	3107705.3790318	NaN	3107706.3624326	3107706.87899357
7	20	1	0	90	36.1581920903955	36.241610738255	24	0.800114015936851	2	11	5	NaN	2	4	0.0371220176202853	0	1	NaN	114	2	51	1	120	220	320	NaN	520	0.714213131926954	1	0	NaN	3107707.9959649	NaN	3107708.9793874	3107709.49590907
7	20	1	0	90	36.1581920903955	36.241610738255	22	0.733437847942114	2	5	2	NaN	1	5	0.0371220176202853	0	1	NaN	115	2	52	1	120	220	320	NaN	520	0.11310643190518	1	1	NaN	3107711.012937	NaN	3107711.9963425	3107712.51286817
7	20	1	0	90	36.1581920903955	36.241610738255	18	0.600085511952639	2	7	3	NaN	2	5	0.0371220176202853	0	1	NaN	116	2	53	1	120	220	320	NaN	520	0.216280534863472	2	1	NaN	3107713.4298333	NaN	3107714.413209	3107714.92978177
7	20	1	0	90	36.1581920903955	36.241610738255	23	0.766775931939483	2	11	2	NaN	2	5	0.0371220176202853	0	1	NaN	117	2	54	1	120	220	320	NaN	520	1.00281838607043	1	0	NaN	3107715.9634222	NaN	3107716.9468171	3107717.46335981
7	20	1	0	90	36.1581920903955	36.241610738255	0	0	1	9	4	NaN	2	5	0.0371220176202853	0	1	NaN	118	2	55	1	110	210	310	NaN	510	0.221526783425361	1	0	NaN	3107719.2804136	NaN	3107720.2638548	3107720.78035272
7	20	1	0	90	36.1581920903955	36.241610738255	22	0.733437847942114	2	8	1	NaN	2	5	0.0371220176202853	0	1	NaN	119	2	56	1	120	220	320	NaN	520	0.311822482850403	2	1	NaN	3107721.8139971	NaN	3107722.7973876	3107723.31393262
7	20	1	0	90	36.1581920903955	36.241610738255	18	0.600085511952639	2	7	4	NaN	2	4	0.0371220176202853	0	1	NaN	120	2	57	1	120	220	320	NaN	520	0.407422986347228	2	1	NaN	3107724.4309038	NaN	3107725.4143308	3107725.93086611
7	20	1	0	90	36.1581920903955	36.241610738255	13	0.433395091965795	2	8	3	NaN	2	5	0.0371220176202853	0	1	NaN	121	2	58	1	120	220	320	NaN	520	0.418055931571871	2	1	NaN	3107727.1478529	NaN	3107728.1312908	3107728.64779217
7	20	1	0	90	36.1581920903955	36.241610738255	12	0.400057007968426	2	1	4	NaN	1	3	0.0371220176202853	0	1	NaN	122	2	59	1	120	220	320	NaN	520	0.372586934361607	2	0	NaN	3107729.881452	NaN	3107730.8648507	3107731.38140167
7	20	1	0	90	36.1581920903955	36.241610738255	13	0.433395091965795	2	12	1	NaN	2	4	0.0371220176202853	0	1	NaN	123	2	60	1	120	220	320	NaN	520	0.361044731922448	2	1	NaN	3107732.5650626	NaN	3107733.5484407	3107734.06499117
7	20	1	0	90	36.1581920903955	36.241610738255	23	0.766775931939483	2	5	4	NaN	1	3	0.0371220176202853	0	1	NaN	124	2	61	1	120	220	320	NaN	520	0.374145334586501	2	0	NaN	3107735.2319414	NaN	3107736.2154103	3107736.73192787
7	20	1	0	90	36.1581920903955	36.241610738255	17	0.56674742795527	2	7	4	NaN	2	4	0.0371220176202853	0	1	NaN	125	2	62	1	120	220	320	NaN	520	1.1863576346077	1	0	NaN	3107737.9154453	NaN	3107738.8990424	3107739.41552597
7	20	1	0	90	36.1581920903955	36.241610738255	15	0.500071259960532	2	11	2	NaN	2	5	0.0371220176202853	0	1	NaN	126	2	63	1	120	220	320	NaN	520	0.541444634553045	2	1	NaN	3107741.4325582	NaN	3107742.4159893	3107742.93254277
7	20	1	0	90	36.1581920903955	36.241610738255	14	0.466733175963163	2	3	1	NaN	1	3	0.0371220176202853	0	1	NaN	127	3	1	1	120	220	320	NaN	520	0.107312834821641	2	0	NaN	3107749.8667489	NaN	3107750.8501312	3107751.36669527
7	20	1	0	90	36.1581920903955	36.241610738255	13	0.433395091965795	2	10	4	NaN	2	4	0.0371220176202853	0	1	NaN	128	3	2	1	120	220	320	NaN	520	0.210194983053952	1	0	NaN	3107752.2836456	NaN	3107753.2670441	3107753.78360192
7	20	1	0	90	36.1581920903955	36.241610738255	13	0.433395091965795	2	1	5	NaN	1	4	0.0371220176202853	0	1	NaN	129	3	3	1	120	220	320	NaN	520	0.429424834437668	2	0	NaN	3107754.8005141	NaN	3107755.7839465	3107756.30052587
7	20	1	0	90	36.1581920903955	36.241610738255	17	0.56674742795527	2	12	1	NaN	2	5	0.0371220176202853	0	1	NaN	130	3	4	1	120	220	320	NaN	520	0.271223980933428	2	1	NaN	3107757.5506951	NaN	3107758.5342334	3107759.05078082
7	20	1	0	90	36.1581920903955	36.241610738255	23	0.766775931939483	2	9	1	NaN	2	3	0.0371220176202853	0	1	NaN	131	3	5	1	120	220	320	NaN	520	0.343636685982347	2	1	NaN	3107760.134423	NaN	3107761.1178241	3107761.63437651
7	20	1	0	90	36.1581920903955	36.241610738255	15	0.500071259960532	2	11	3	NaN	2	4	0.0371220176202853	0	1	NaN	132	3	6	1	120	220	320	NaN	520	0.365213083103299	2	1	NaN	3107762.7846804	NaN	3107763.7681019	3107764.28462982
7	20	1	0	90	36.1581920903955	36.241610738255	9	0.300042755976319	2	2	4	NaN	1	3	0.0371220176202853	0	1	NaN	133	3	7	1	120	220	320	NaN	520	0.281883482821286	1	1	NaN	3107765.4682763	NaN	3107766.451722	3107766.96823762
7	20	1	0	90	36.1581920903955	36.241610738255	14	0.466733175963163	2	9	6	NaN	2	4	0.0371220176202853	0	1	NaN	134	3	8	1	120	220	320	NaN	520	0.338314134627581	2	1	NaN	3107768.0517861	NaN	3107769.0352663	3107769.55183007
7	20	1	0	90	36.1581920903955	36.241610738255	12	0.400057007968426	2	7	5	NaN	2	3	0.0371220176202853	0	1	NaN	135	3	9	1	120	220	320	NaN	520	0.344350534956902	2	1	NaN	3107770.7021359	NaN	3107771.6855383	3107772.20208707
7	20	1	0	90	36.1581920903955	36.241610738255	16	0.533409343957901	2	8	5	NaN	2	3	0.0371220176202853	0	1	NaN	136	3	10	1	120	220	320	NaN	520	0.293980434536934	2	1	NaN	3107773.3523972	NaN	3107774.3357963	3107774.85234287
7	20	1	0	90	36.1581920903955	36.241610738255	16	0.533409343957901	2	12	4	NaN	2	5	0.0371220176202853	0	1	NaN	137	3	11	1	120	220	320	NaN	520	0.261215382721275	2	1	NaN	3107775.952655	NaN	3107776.9360451	3107777.45259602
7	20	1	0	90	36.1581920903955	36.241610738255	16	0.533409343957901	2	12	5	NaN	2	4	0.0371220176202853	0	1	NaN	138	3	12	1	120	220	320	NaN	520	0.397739680949599	2	1	NaN	3107778.5362477	NaN	3107779.5196389	3107780.03617912
7	20	1	0	90	36.1581920903955	36.241610738255	25	0.83345209993422	2	7	6	NaN	2	4	0.0371220176202853	0	1	NaN	139	3	13	1	120	220	320	NaN	520	0.312864234670997	2	1	NaN	3107781.2531638	NaN	3107782.2365615	3107782.75312097
7	20	1	0	90	36.1581920903955	36.241610738255	0	0	1	2	5	NaN	1	3	0.0371220176202853	0	1	NaN	140	3	14	1	110	210	310	NaN	510	0.255203283391893	1	1	NaN	3107783.8867663	NaN	3107784.8701654	3107785.38671342
7	20	1	0	90	36.1581920903955	36.241610738255	10	0.333380839973688	2	3	4	NaN	1	3	0.0371220176202853	0	1	NaN	141	3	15	1	120	220	320	NaN	520	0.152447334490716	2	0	NaN	3107786.4536865	NaN	3107787.4370881	3107787.95363557
7	20	1	0	90	36.1581920903955	36.241610738255	21	0.700099763944745	2	11	5	NaN	2	5	0.0371220176202853	0	1	NaN	142	3	16	1	120	220	320	NaN	520	0.285486682783812	2	1	NaN	3107788.920606	NaN	3107789.9040146	3107790.42053562
7	20	1	0	90	36.1581920903955	36.241610738255	23	0.766775931939483	2	12	3	NaN	2	5	0.0371220176202853	0	1	NaN	143	3	17	1	120	220	320	NaN	520	0.405237488914281	1	0	NaN	3107791.520857	NaN	3107792.5042752	3107793.02080841
7	20	1	0	90	36.1581920903955	36.241610738255	14	0.466733175963163	2	7	4	NaN	2	5	0.0371220176202853	0	1	NaN	144	3	18	1	120	220	320	NaN	520	0.384130734484643	2	1	NaN	3107794.2377791	NaN	3107795.2211699	3107795.73773447
7	20	1	0	90	36.1581920903955	36.241610738255	19	0.633423595950007	2	9	1	NaN	2	5	0.0371220176202853	0	1	NaN	145	3	19	1	120	220	320	NaN	520	0.460369735024869	2	1	NaN	3107796.9380738	NaN	3107797.921452	3107798.43799837
7	20	1	0	90	36.1581920903955	36.241610738255	7	0.233366587981582	2	12	2	NaN	2	3	0.0371220176202853	0	1	NaN	146	3	20	1	120	220	320	NaN	520	0.285414685960859	1	0	NaN	3107799.7049846	NaN	3107800.6883867	3107801.20494481
7	20	1	0	90	36.1581920903955	36.241610738255	17	0.56674742795527	2	2	5	NaN	1	4	0.0371220176202853	0	1	NaN	147	3	21	1	120	220	320	NaN	520	0.213046834804118	2	0	NaN	3107802.3052499	NaN	3107803.2886518	3107803.80519507
7	20	1	0	90	36.1581920903955	36.241610738255	16	0.533409343957901	2	3	5	NaN	1	5	0.0371220176202853	0	1	NaN	148	3	22	1	120	220	320	NaN	520	0.168244834989309	1	1	NaN	3107804.8221636	NaN	3107805.8055546	3107806.32210557
7	20	1	0	90	36.1581920903955	36.241610738255	7	0.233366587981582	2	8	1	NaN	2	3	0.0371220176202853	0	1	NaN	149	3	23	1	120	220	320	NaN	520	0.204308134969324	2	1	NaN	3107807.3057771	NaN	3107808.289115	3107808.80568907
7	20	1	0	90	36.1581920903955	36.241610738255	21	0.700099763944745	2	10	6	NaN	2	5	0.0371220176202853	0	1	NaN	150	3	24	1	120	220	320	NaN	520	0.327833383344114	1	0	NaN	3107809.8224992	NaN	3107810.8060463	3107811.32261552
7	20	1	0	90	36.1581920903955	36.241610738255	6	0.200028503984213	2	4	4	NaN	1	5	0.0371220176202853	0	1	NaN	151	3	25	1	120	220	320	NaN	520	0.253231934737414	2	0	NaN	3107812.4729054	NaN	3107813.4563134	3107813.97286517
7	20	1	0	90	36.1581920903955	36.241610738255	12	0.400057007968426	2	3	2	NaN	1	5	0.0371220176202853	0	1	NaN	152	3	26	1	120	220	320	NaN	520	0.270457534585148	1	1	NaN	3107815.0398246	NaN	3107816.0232277	3107816.53978547
7	20	1	0	90	36.1581920903955	36.241610738255	9	0.300042755976319	2	6	4	NaN	1	5	0.0371220176202853	0	1	NaN	153	3	27	1	120	220	320	NaN	520	0.158750283066183	1	1	NaN	3107817.623418	NaN	3107818.6068066	3107819.12337372
7	20	1	0	90	36.1581920903955	36.241610738255	20	0.666761679947376	2	1	6	NaN	1	3	0.0371220176202853	0	1	NaN	154	3	28	1	120	220	320	NaN	520	0.268214034847915	2	0	NaN	3107820.0902038	NaN	3107821.0737232	3107821.59028367
7	20	1	0	90	36.1581920903955	36.241610738255	8	0.26670467197895	2	9	3	NaN	2	3	0.0371220176202853	0	1	NaN	155	3	29	1	120	220	320	NaN	520	0.0922085344791412	2	1	NaN	3107822.6739003	NaN	3107823.6573163	3107824.17386947
7	20	1	0	90	36.1581920903955	36.241610738255	18	0.600085511952639	2	4	4	NaN	1	5	0.0371220176202853	0	1	NaN	156	3	30	1	120	220	320	NaN	520	0.22807688312605	2	0	NaN	3107825.0741315	NaN	3107826.0575603	3107826.57409482
7	20	1	0	90	36.1581920903955	36.241610738255	18	0.600085511952639	2	3	4	NaN	1	3	0.0371220176202853	0	1	NaN	157	3	31	1	120	220	320	NaN	520	0.830289185978472	2	0	NaN	3107827.6077272	NaN	3107828.5911112	3107829.10768111
7	20	1	0	90	36.1581920903955	36.241610738255	17	0.56674742795527	2	3	5	NaN	1	4	0.0371220176202853	0	1	NaN	158	3	32	1	120	220	320	NaN	520	0.297084182966501	1	1	NaN	3107830.7413702	NaN	3107831.7247757	3107832.24131822
7	20	1	0	90	36.1581920903955	36.241610738255	0	0	1	10	4	NaN	2	5	0.0371220176202853	0	1	NaN	159	3	33	1	110	210	310	NaN	510	0.455772234592587	2	1	NaN	3107833.9583348	NaN	3107834.9417614	3107835.45831247
7	20	1	0	90	36.1581920903955	36.241610738255	11	0.366718923971057	2	3	6	NaN	1	5	0.0371220176202853	0	1	NaN	160	3	34	1	120	220	320	NaN	520	0.960818834602833	2	0	NaN	3107836.7253076	NaN	3107837.7086937	3107838.22525447
7	20	1	0	90	36.1581920903955	36.241610738255	15	0.500071259960532	2	6	2	NaN	1	5	0.0371220176202853	0	1	NaN	161	3	35	1	120	220	320	NaN	520	3.36276048282161	1	1	NaN	3107840.0756257	NaN	3107841.0590096	3107841.57556992
7	20	1	0	90	36.1581920903955	36.241610738255	25	0.83345209993422	2	11	2	NaN	2	4	0.0371220176202853	0	1	NaN	162	3	36	1	120	220	320	NaN	520	0.222682431805879	2	1	NaN	3107845.7595232	NaN	3107846.7429195	3107847.25947257
7	20	1	0	90	36.1581920903955	36.241610738255	19	0.633423595950007	2	5	3	NaN	1	5	0.0371220176202853	0	1	NaN	163	3	37	1	120	220	320	NaN	520	1.18493013456464	2	0	NaN	3107848.2932007	NaN	3107849.2765018	3107849.79305777
7	20	1	0	90	36.1581920903955	36.241610738255	6	0.200028503984213	2	12	6	NaN	2	3	0.0371220176202853	0	1	NaN	164	3	38	1	120	220	320	NaN	520	0.244658334646374	2	1	NaN	3107851.7933171	NaN	3107852.7768438	3107853.29340027
7	20	1	0	90	36.1581920903955	36.241610738255	12	0.400057007968426	2	6	6	NaN	1	5	0.0371220176202853	0	1	NaN	165	3	39	1	120	220	320	NaN	520	0.333803982939571	1	1	NaN	3107854.3603539	NaN	3107855.3437453	3107855.86032992
7	20	1	0	90	36.1581920903955	36.241610738255	24	0.800114015936851	2	2	6	NaN	1	5	0.0371220176202853	0	1	NaN	166	3	40	1	120	220	320	NaN	520	1.0914873345755	1	1	NaN	3107857.0104987	NaN	3107857.9940204	3107858.51058107
7	20	1	0	90	36.1581920903955	36.241610738255	19	0.633423595950007	2	1	4	NaN	1	5	0.0371220176202853	0	1	NaN	167	3	41	1	120	220	320	NaN	520	0.171365934889764	1	1	NaN	3107860.4109683	NaN	3107861.3943477	3107861.91091707
7	20	1	0	90	36.1581920903955	36.241610738255	19	0.633423595950007	2	3	5	NaN	1	4	0.0371220176202853	0	1	NaN	168	3	42	1	120	220	320	NaN	520	0.191680634394288	1	1	NaN	3107862.8945268	NaN	3107863.8779324	3107864.39449557
7	20	1	0	90	36.1581920903955	36.241610738255	19	0.633423595950007	2	12	1	NaN	2	3	0.0371220176202853	0	1	NaN	169	3	43	1	120	220	320	NaN	520	0.195716434624046	2	1	NaN	3107865.3947891	NaN	3107866.3781697	3107866.89472927
7	20	1	0	90	36.1581920903955	36.241610738255	24	0.800114015936851	2	11	3	NaN	2	5	0.0371220176202853	0	1	NaN	170	3	44	1	120	220	320	NaN	520	0.23094818321988	2	1	NaN	3107867.9117054	NaN	3107868.8951047	3107869.41165392
7	20	1	0	90	36.1581920903955	36.241610738255	23	0.766775931939483	2	11	3	NaN	2	5	0.0371220176202853	0	1	NaN	171	3	45	1	120	220	320	NaN	520	0.424171894323081	1	0	NaN	3107870.4619541	NaN	3107871.4453889	3107871.96190321
7	20	1	0	90	36.1581920903955	36.241610738255	8	0.26670467197895	2	11	4	NaN	2	4	0.0371220176202853	0	1	NaN	172	3	46	1	120	220	320	NaN	520	0.290640245657414	2	1	NaN	3107873.195548	NaN	3107874.1789473	3107874.69550515
7	20	1	0	90	36.1581920903955	36.241610738255	0	0	1	6	3	NaN	1	4	0.0371220176202853	0	1	NaN	173	3	47	1	110	210	310	NaN	510	0.282727383077145	1	1	NaN	3107875.7956629	NaN	3107876.7791957	3107877.29576102
7	20	1	0	90	36.1581920903955	36.241610738255	9	0.300042755976319	2	12	6	NaN	2	4	0.0371220176202853	0	1	NaN	174	3	48	1	120	220	320	NaN	520	0.377951483242214	2	1	NaN	3107878.3960585	NaN	3107879.3794568	3107879.89601182
7	20	1	0	90	36.1581920903955	36.241610738255	21	0.700099763944745	2	4	4	NaN	1	4	0.0371220176202853	0	1	NaN	175	3	49	1	120	220	320	NaN	520	0.262596534565091	2	0	NaN	3107881.079667	NaN	3107882.0630576	3107882.57961467
7	20	1	0	90	36.1581920903955	36.241610738255	9	0.300042755976319	2	7	2	NaN	2	5	0.0371220176202853	0	1	NaN	176	3	50	1	120	220	320	NaN	520	0.711549383122474	2	1	NaN	3107883.6465915	NaN	3107884.6299824	3107885.14652902
7	20	1	0	90	36.1581920903955	36.241610738255	24	0.800114015936851	2	9	6	NaN	2	3	0.0371220176202853	0	1	NaN	177	3	51	1	120	220	320	NaN	520	0.334421143401414	2	1	NaN	3107886.6802164	NaN	3107887.6636062	3107888.18016086
7	20	1	0	90	36.1581920903955	36.241610738255	20	0.666761679947376	2	8	6	NaN	2	5	0.0371220176202853	0	1	NaN	178	3	52	1	120	220	320	NaN	520	0.187801142688841	1	0	NaN	3107889.3304635	NaN	3107890.3138726	3107890.83042906
7	20	1	0	90	36.1581920903955	36.241610738255	21	0.700099763944745	2	12	1	NaN	2	5	0.0371220176202853	0	1	NaN	179	3	53	1	120	220	320	NaN	520	0.503518586046994	2	1	NaN	3107891.8307105	NaN	3107892.8141262	3107893.33066291
7	20	1	0	90	36.1581920903955	36.241610738255	6	0.200028503984213	2	5	3	NaN	1	4	0.0371220176202853	0	1	NaN	180	3	54	1	120	220	320	NaN	520	0.366473131813109	1	1	NaN	3107894.6476554	NaN	3107895.6310492	3107896.14760617
7	20	1	0	90	36.1581920903955	36.241610738255	19	0.633423595950007	2	4	6	NaN	1	4	0.0371220176202853	0	1	NaN	181	3	55	1	120	220	320	NaN	520	0.275315934792161	1	1	NaN	3107897.3312632	NaN	3107898.3146654	3107898.83121567
7	20	1	0	90	36.1581920903955	36.241610738255	0	0	1	12	3	NaN	2	5	0.0371220176202853	0	1	NaN	182	3	56	1	110	210	310	NaN	510	0.243446683045477	2	1	NaN	3107899.9147113	NaN	3107900.8982444	3107901.41479662
7	20	1	0	90	36.1581920903955	36.241610738255	25	0.83345209993422	2	10	6	NaN	2	4	0.0371220176202853	0	1	NaN	183	3	57	1	120	220	320	NaN	520	0.34931203443557	2	1	NaN	3107902.4649859	NaN	3107903.4484789	3107903.96504887
7	20	1	0	90	36.1581920903955	36.241610738255	0	0	1	12	3	NaN	2	5	0.0371220176202853	0	1	NaN	184	3	58	1	110	210	310	NaN	510	0.178333931602538	2	1	NaN	3107905.1320196	NaN	3107906.1154318	3107906.63198037
7	20	1	0	90	36.1581920903955	36.241610738255	21	0.700099763944745	2	9	4	NaN	2	4	0.0371220176202853	0	1	NaN	185	3	59	1	120	220	320	NaN	520	0.254315280355513	1	0	NaN	3107907.6323276	NaN	3107908.6156557	3107909.13222562
7	20	1	0	90	36.1581920903955	36.241610738255	9	0.300042755976319	2	10	3	NaN	2	3	0.0371220176202853	0	1	NaN	186	3	60	1	120	220	320	NaN	520	0.222960683051497	2	1	NaN	3107910.1991128	NaN	3107911.1825984	3107911.69914262
7	20	1	0	90	36.1581920903955	36.241610738255	19	0.633423595950007	2	2	4	NaN	1	5	0.0371220176202853	0	1	NaN	187	3	61	1	120	220	320	NaN	520	0.273522383067757	1	1	NaN	3107912.7327949	NaN	3107913.7161798	3107914.23272372
7	20	1	0	90	36.1581920903955	36.241610738255	15	0.500071259960532	2	12	6	NaN	2	4	0.0371220176202853	0	1	NaN	188	3	62	1	120	220	320	NaN	520	0.370062931440771	2	1	NaN	3107915.3163703	NaN	3107916.2997623	3107916.81630627
7	20	1	0	90	36.1581920903955	36.241610738255	11	0.366718923971057	2	4	1	NaN	1	5	0.0371220176202853	0	1	NaN	189	3	63	1	120	220	320	NaN	520	0.414247534703463	1	1	NaN	3107917.9999654	NaN	3107918.9833643	3107919.49991317
7	20	1	0	90	36.1581920903955	36.241610738255	8	0.26670467197895	2	3	4	NaN	1	4	0.0371220176202853	0	1	NaN	190	4	1	1	120	220	320	NaN	520	0.342408834490925	2	0	NaN	3107970.4717878	NaN	3107971.4551894	3107971.97174817
7	20	1	0	90	36.1581920903955	36.241610738255	25	0.83345209993422	2	6	3	NaN	1	4	0.0371220176202853	0	1	NaN	191	4	2	1	120	220	320	NaN	520	0.370325782801956	1	1	NaN	3107973.7720192	NaN	3107974.7555167	3107975.27206672
7	20	1	0	90	36.1581920903955	36.241610738255	23	0.766775931939483	2	10	5	NaN	2	4	0.0371220176202853	0	1	NaN	192	4	3	1	120	220	320	NaN	520	0.254731196910143	1	0	NaN	3107976.4557181	NaN	3107977.4391076	3107977.9556732
7	20	1	0	90	36.1581920903955	36.241610738255	9	0.300042755976319	2	4	5	NaN	1	5	0.0371220176202853	0	1	NaN	193	4	4	1	120	220	320	NaN	520	0.264031786005944	1	1	NaN	3107979.0226418	NaN	3107980.0060358	3107980.52258591
7	20	1	0	90	36.1581920903955	36.241610738255	6	0.200028503984213	2	9	6	NaN	2	3	0.0371220176202853	0	1	NaN	194	4	5	1	120	220	320	NaN	520	0.287971634883434	1	0	NaN	3107981.6062285	NaN	3107982.5895988	3107983.10616537
7	20	1	0	90	36.1581920903955	36.241610738255	8	0.26670467197895	2	2	3	NaN	1	4	0.0371220176202853	0	1	NaN	195	4	6	1	120	220	320	NaN	520	1.51977163180709	2	0	NaN	3107984.2064778	NaN	3107985.1898528	3107985.70641837
7	20	1	0	90	36.1581920903955	36.241610738255	8	0.26670467197895	2	9	1	NaN	2	4	0.0371220176202853	0	1	NaN	196	4	7	1	120	220	320	NaN	520	0.101948482915759	1	0	NaN	3107988.0401788	NaN	3107989.023586	3107989.54014332
7	20	1	0	90	36.1581920903955	36.241610738255	10	0.333380839973688	2	11	2	NaN	2	4	0.0371220176202853	0	1	NaN	197	4	8	1	120	220	320	NaN	520	0.365677234716713	1	0	NaN	3107990.4570951	NaN	3107991.4405541	3107991.95704827
7	20	1	0	90	36.1581920903955	36.241610738255	16	0.533409343957901	2	8	1	NaN	2	3	0.0371220176202853	0	1	NaN	198	4	9	1	120	220	320	NaN	520	0.241733434610069	2	1	NaN	3107993.1406981	NaN	3107994.1240812	3107994.64064157
7	20	1	0	90	36.1581920903955	36.241610738255	20	0.666761679947376	2	3	4	NaN	1	4	0.0371220176202853	0	1	NaN	199	4	10	1	120	220	320	NaN	520	0.203449982684106	2	0	NaN	3107995.6909352	NaN	3107996.6743394	3107997.19088822
7	20	1	0	90	36.1581920903955	36.241610738255	25	0.83345209993422	2	2	3	NaN	1	5	0.0371220176202853	0	1	NaN	200	4	11	1	120	220	320	NaN	520	0.342906534671783	1	1	NaN	3107998.2078599	NaN	3107999.1912534	3107999.70780207
7	20	1	0	90	36.1581920903955	36.241610738255	7	0.233366587981582	2	5	4	NaN	1	4	0.0371220176202853	0	1	NaN	201	4	12	1	120	220	320	NaN	520	0.316607674583793	1	1	NaN	3108000.8579927	NaN	3108001.8415329	3108002.35805353
7	20	1	0	90	36.1581920903955	36.241610738255	12	0.400057007968426	2	4	3	NaN	1	5	0.0371220176202853	0	1	NaN	202	4	13	1	120	220	320	NaN	520	0.459144834894687	2	0	NaN	3108003.491709	NaN	3108004.4750884	3108004.99166217
7	20	1	0	90	36.1581920903955	36.241610738255	25	0.83345209993422	2	4	2	NaN	1	4	0.0371220176202853	0	1	NaN	203	4	14	1	120	220	320	NaN	520	0.372114134952426	1	1	NaN	3108006.2586596	NaN	3108007.2420354	3108007.75860307
7	20	1	0	90	36.1581920903955	36.241610738255	11	0.366718923971057	2	8	3	NaN	2	4	0.0371220176202853	0	1	NaN	204	4	15	1	120	220	320	NaN	520	0.304526334628463	2	1	NaN	3108008.9421213	NaN	3108009.9256481	3108010.44220027
7	20	1	0	90	36.1581920903955	36.241610738255	24	0.800114015936851	2	12	5	NaN	2	3	0.0371220176202853	0	1	NaN	205	4	16	1	120	220	320	NaN	520	0.399327782914042	2	1	NaN	3108011.5591816	NaN	3108012.5425598	3108013.05912442
7	20	1	0	90	36.1581920903955	36.241610738255	23	0.766775931939483	2	1	3	NaN	1	3	0.0371220176202853	0	1	NaN	206	4	17	1	120	220	320	NaN	520	0.274673431646079	1	1	NaN	3108014.2761065	NaN	3108015.259505	3108015.77605617
7	20	1	0	90	36.1581920903955	36.241610738255	7	0.233366587981582	2	10	3	NaN	2	3	0.0371220176202853	0	1	NaN	207	4	18	1	120	220	320	NaN	520	0.171082134824246	1	0	NaN	3108016.8596972	NaN	3108017.8430976	3108018.35964027
7	20	1	0	90	36.1581920903955	36.241610738255	25	0.83345209993422	2	8	4	NaN	2	4	0.0371220176202853	0	1	NaN	208	4	19	1	120	220	320	NaN	520	0.327548082917929	2	1	NaN	3108019.3433484	NaN	3108020.3266748	3108020.84321652
7	20	1	0	90	36.1581920903955	36.241610738255	9	0.300042755976319	2	10	2	NaN	2	4	0.0371220176202853	0	1	NaN	209	4	20	1	120	220	320	NaN	520	0.533037183340639	1	0	NaN	3108021.9934214	NaN	3108022.9769067	3108023.49347432
7	20	1	0	90	36.1581920903955	36.241610738255	12	0.400057007968426	2	10	1	NaN	2	5	0.0371220176202853	0	1	NaN	210	4	21	1	120	220	320	NaN	520	0.185975034721196	2	1	NaN	3108024.8604721	NaN	3108025.8438555	3108026.36042457
7	20	1	0	90	36.1581920903955	36.241610738255	24	0.800114015936851	2	9	4	NaN	2	4	0.0371220176202853	0	1	NaN	211	4	22	1	120	220	320	NaN	520	0.27007878292352	2	1	NaN	3108027.3607153	NaN	3108028.3441472	3108028.86066912
7	20	1	0	90	36.1581920903955	36.241610738255	10	0.333380839973688	2	1	2	NaN	1	4	0.0371220176202853	0	1	NaN	212	4	23	1	120	220	320	NaN	520	0.198130334727466	2	0	NaN	3108029.9442011	NaN	3108030.9276978	3108031.44426077
7	20	1	0	90	36.1581920903955	36.241610738255	23	0.766775931939483	2	8	2	NaN	2	3	0.0371220176202853	0	1	NaN	213	4	24	1	120	220	320	NaN	520	0.209270082879812	2	1	NaN	3108032.4611072	NaN	3108033.4446284	3108033.96117342
7	20	1	0	90	36.1581920903955	36.241610738255	22	0.733437847942114	2	10	5	NaN	2	5	0.0371220176202853	0	1	NaN	214	4	25	1	120	220	320	NaN	520	0.266449534799904	1	0	NaN	3108035.2281449	NaN	3108036.2115435	3108036.72811537
7	20	1	0	90	36.1581920903955	36.241610738255	6	0.200028503984213	2	11	3	NaN	2	5	0.0371220176202853	0	1	NaN	215	4	26	1	120	220	320	NaN	520	0.259036537725478	2	1	NaN	3108037.8117566	NaN	3108038.7951494	3108039.31170906
7	20	1	0	90	36.1581920903955	36.241610738255	18	0.600085511952639	2	12	3	NaN	2	5	0.0371220176202853	0	1	NaN	216	4	27	1	120	220	320	NaN	520	0.715242282953113	2	1	NaN	3108040.3951909	NaN	3108041.3787169	3108041.89528252
7	20	1	0	90	36.1581920903955	36.241610738255	9	0.300042755976319	2	3	3	NaN	1	5	0.0371220176202853	0	1	NaN	217	4	28	1	120	220	320	NaN	520	0.010408834554255	1	1	NaN	3108043.4122866	NaN	3108044.395702	3108044.91225857
7	20	1	0	90	36.1581920903955	36.241610738255	24	0.800114015936851	2	3	6	NaN	1	4	0.0371220176202853	0	1	NaN	218	4	29	1	120	220	320	NaN	520	0.317545385565609	2	0	NaN	3108045.729063	NaN	3108046.7125758	3108047.22914151
7	20	1	0	90	36.1581920903955	36.241610738255	23	0.766775931939483	2	12	6	NaN	2	3	0.0371220176202853	0	1	NaN	219	4	30	1	120	220	320	NaN	520	0.316045534797013	2	1	NaN	3108048.3628319	NaN	3108049.3461915	3108049.86273977
7	20	1	0	90	36.1581920903955	36.241610738255	10	0.333380839973688	2	11	5	NaN	2	5	0.0371220176202853	0	1	NaN	220	4	31	1	120	220	320	NaN	520	0.25033653434366	2	1	NaN	3108050.9963726	NaN	3108051.9797856	3108052.49633467
7	20	1	0	90	36.1581920903955	36.241610738255	0	0	1	5	6	NaN	1	4	0.0371220176202853	0	1	NaN	221	4	32	1	110	210	310	NaN	510	0.275014231912792	2	0	NaN	3108053.563176	NaN	3108054.5466965	3108055.06325297
7	20	1	0	90	36.1581920903955	36.241610738255	9	0.300042755976319	2	12	4	NaN	2	5	0.0371220176202853	0	1	NaN	222	4	33	1	120	220	320	NaN	520	0.250915134325624	2	1	NaN	3108056.1635582	NaN	3108057.1469596	3108057.66350927
7	20	1	0	90	36.1581920903955	36.241610738255	22	0.733437847942114	2	9	6	NaN	2	3	0.0371220176202853	0	1	NaN	223	4	34	1	120	220	320	NaN	520	0.30003333138302	1	0	NaN	3108058.7304912	NaN	3108059.7138807	3108060.23042407
7	20	1	0	90	36.1581920903955	36.241610738255	7	0.233366587981582	2	2	5	NaN	1	5	0.0371220176202853	0	1	NaN	224	4	35	1	120	220	320	NaN	520	0.363416134379804	1	1	NaN	3108061.3474082	NaN	3108062.3307981	3108062.84735397
7	20	1	0	90	36.1581920903955	36.241610738255	20	0.666761679947376	2	3	5	NaN	1	4	0.0371220176202853	0	1	NaN	225	4	36	1	120	220	320	NaN	520	0.48778818314895	1	1	NaN	3108064.0310246	NaN	3108065.0143957	3108065.53094212
7	20	1	0	90	36.1581920903955	36.241610738255	8	0.26670467197895	2	10	6	NaN	2	5	0.0371220176202853	0	1	NaN	226	4	37	1	120	220	320	NaN	520	0.359578493982553	2	1	NaN	3108066.831274	NaN	3108067.8146913	3108068.33122341
7	20	1	0	90	36.1581920903955	36.241610738255	20	0.666761679947376	2	2	6	NaN	1	5	0.0371220176202853	0	1	NaN	227	4	38	1	120	220	320	NaN	520	0.308530882932246	2	0	NaN	3108069.4982158	NaN	3108070.4815905	3108070.99815422
7	20	1	0	90	36.1581920903955	36.241610738255	6	0.200028503984213	2	4	2	NaN	1	4	0.0371220176202853	0	1	NaN	228	4	39	1	120	220	320	NaN	520	0.459022334776819	2	0	NaN	3108072.1317875	NaN	3108073.1151964	3108073.63174147
7	20	1	0	90	36.1581920903955	36.241610738255	6	0.200028503984213	2	1	5	NaN	1	4	0.0371220176202853	0	1	NaN	229	4	40	1	120	220	320	NaN	520	0.30713623482734	1	1	NaN	3108074.9154035	NaN	3108075.8988025	3108076.41535307
7	20	1	0	90	36.1581920903955	36.241610738255	11	0.366718923971057	2	10	3	NaN	2	4	0.0371220176202853	0	1	NaN	230	4	41	1	120	220	320	NaN	520	0.626033834647387	2	1	NaN	3108077.5323196	NaN	3108078.5157987	3108079.03228237
7	20	1	0	90	36.1581920903955	36.241610738255	6	0.200028503984213	2	2	2	NaN	1	5	0.0371220176202853	0	1	NaN	231	4	42	1	120	220	320	NaN	520	0.332138583064079	1	1	NaN	3108080.4826069	NaN	3108081.4660104	3108081.98256582
7	20	1	0	90	36.1581920903955	36.241610738255	8	0.26670467197895	2	6	1	NaN	1	3	0.0371220176202853	0	1	NaN	232	4	43	1	120	220	320	NaN	520	0.241988535039127	1	1	NaN	3108083.1162002	NaN	3108084.0996088	3108084.61616337
7	20	1	0	90	36.1581920903955	36.241610738255	10	0.333380839973688	2	5	3	NaN	1	5	0.0371220176202853	0	1	NaN	233	4	44	1	120	220	320	NaN	520	0.292260983027518	1	1	NaN	3108085.6664498	NaN	3108086.649917	3108087.16640222
7	20	1	0	90	36.1581920903955	36.241610738255	11	0.366718923971057	2	4	1	NaN	1	3	0.0371220176202853	0	1	NaN	234	4	45	1	120	220	320	NaN	520	0.451503183227032	1	1	NaN	3108088.2833866	NaN	3108089.2667621	3108089.78333162
7	20	1	0	90	36.1581920903955	36.241610738255	8	0.26670467197895	2	7	3	NaN	2	5	0.0371220176202853	0	1	NaN	235	4	46	1	120	220	320	NaN	520	0.180603534448892	2	1	NaN	3108091.0503356	NaN	3108092.0337327	3108092.55027867
7	20	1	0	90	36.1581920903955	36.241610738255	6	0.200028503984213	2	1	2	NaN	1	4	0.0371220176202853	0	1	NaN	236	4	47	1	120	220	320	NaN	520	0.280535734724253	1	1	NaN	3108093.5337788	NaN	3108094.5173023	3108095.03385237
7	20	1	0	90	36.1581920903955	36.241610738255	21	0.700099763944745	2	12	3	NaN	2	4	0.0371220176202853	0	1	NaN	237	4	48	1	120	220	320	NaN	520	0.288384932093322	2	1	NaN	3108096.1340303	NaN	3108097.1175561	3108097.63409897
7	20	1	0	90	36.1581920903955	36.241610738255	14	0.466733175963163	2	12	2	NaN	2	3	0.0371220176202853	0	1	NaN	238	4	49	1	120	220	320	NaN	520	0.320058034732938	2	1	NaN	3108098.7344011	NaN	3108099.7178091	3108100.23435907
7	20	1	0	90	36.1581920903955	36.241610738255	6	0.200028503984213	2	8	6	NaN	2	4	0.0371220176202853	0	1	NaN	239	4	50	1	120	220	320	NaN	520	0.526274831499904	2	1	NaN	3108101.368005	NaN	3108102.3513893	3108102.86794617
7	20	1	0	90	36.1581920903955	36.241610738255	9	0.300042755976319	2	7	1	NaN	2	5	0.0371220176202853	0	1	NaN	240	4	51	1	120	220	320	NaN	520	0.116896134801209	1	0	NaN	3108104.201611	NaN	3108105.1850491	3108105.70156407
7	20	1	0	90	36.1581920903955	36.241610738255	19	0.633423595950007	2	6	6	NaN	1	3	0.0371220176202853	0	1	NaN	241	4	52	1	120	220	320	NaN	520	0.260369783267379	1	1	NaN	3108106.6185283	NaN	3108107.601916	3108108.11846732
7	20	1	0	90	36.1581920903955	36.241610738255	0	0	1	8	3	NaN	2	3	0.0371220176202853	0	1	NaN	242	4	53	1	110	210	310	NaN	510	0.277020534966141	2	1	NaN	3108109.1854304	NaN	3108110.168844	3108110.68538747
7	20	1	0	90	36.1581920903955	36.241610738255	10	0.333380839973688	2	10	2	NaN	2	3	0.0371220176202853	0	1	NaN	243	4	54	1	120	220	320	NaN	520	0.389858582988381	2	1	NaN	3108111.7690265	NaN	3108112.7524251	3108113.26897882
7	20	1	0	90	36.1581920903955	36.241610738255	10	0.333380839973688	2	3	4	NaN	1	3	0.0371220176202853	0	1	NaN	244	4	55	1	120	220	320	NaN	520	0.265393897425383	2	0	NaN	3108114.4692891	NaN	3108115.4527008	3108115.9692539
7	20	1	0	90	36.1581920903955	36.241610738255	15	0.500071259960532	2	4	6	NaN	1	4	0.0371220176202853	0	1	NaN	245	4	56	1	120	220	320	NaN	520	0.281756931915879	1	1	NaN	3108117.0529009	NaN	3108118.0362784	3108118.55282997
7	20	1	0	90	36.1581920903955	36.241610738255	11	0.366718923971057	2	1	3	NaN	1	3	0.0371220176202853	0	1	NaN	246	4	57	1	120	220	320	NaN	520	0.337419734802097	1	1	NaN	3108119.653133	NaN	3108120.636466	3108121.15308847
7	20	1	0	90	36.1581920903955	36.241610738255	25	0.83345209993422	2	6	4	NaN	1	3	0.0371220176202853	0	1	NaN	247	4	58	1	120	220	320	NaN	520	0.31936053186655	1	1	NaN	3108122.3034122	NaN	3108123.2867959	3108123.80335017
7	20	1	0	90	36.1581920903955	36.241610738255	18	0.600085511952639	2	8	1	NaN	2	3	0.0371220176202853	0	1	NaN	248	4	59	1	120	220	320	NaN	520	0.229518034495413	2	1	NaN	3108124.9369875	NaN	3108125.9204032	3108126.43694507
7	20	1	0	90	36.1581920903955	36.241610738255	7	0.233366587981582	2	4	5	NaN	1	5	0.0371220176202853	0	1	NaN	249	4	60	1	120	220	320	NaN	520	0.155358686111867	1	1	NaN	3108127.587344	NaN	3108128.5706727	3108129.08720761
7	20	1	0	90	36.1581920903955	36.241610738255	17	0.56674742795527	2	6	5	NaN	1	3	0.0371220176202853	0	1	NaN	250	4	61	1	120	220	320	NaN	520	0.384758091531694	1	1	NaN	3108130.0541646	NaN	3108131.0375425	3108131.55410721
7	20	1	0	90	36.1581920903955	36.241610738255	24	0.800114015936851	2	7	1	NaN	2	3	0.0371220176202853	0	1	NaN	251	4	62	1	120	220	320	NaN	520	0.252254382707179	1	0	NaN	3108132.7544376	NaN	3108133.7378587	3108134.25436742
7	20	1	0	90	36.1581920903955	36.241610738255	17	0.56674742795527	2	8	2	NaN	2	4	0.0371220176202853	0	1	NaN	252	4	63	1	120	220	320	NaN	520	0.253274734597653	1	0	NaN	3108135.321333	NaN	3108136.3047484	3108136.82129277
7	20	1	0	90	36.1581920903955	36.241610738255	8	0.26670467197895	2	12	3	NaN	2	4	0.0371220176202853	0	1	NaN	253	5	1	1	120	220	320	NaN	520	0.527277634479105	2	1	NaN	3108142.4554075	NaN	3108143.4387781	3108143.95532557
7	20	1	0	90	36.1581920903955	36.241610738255	17	0.56674742795527	2	8	5	NaN	2	5	0.0371220176202853	0	1	NaN	254	5	2	1	120	220	320	NaN	520	0.925704331602901	2	1	NaN	3108145.2889246	NaN	3108146.272376	3108146.78893517
7	20	1	0	90	36.1581920903955	36.241610738255	19	0.633423595950007	2	7	1	NaN	2	3	0.0371220176202853	0	1	NaN	255	5	3	1	120	220	320	NaN	520	0.244288834743202	2	1	NaN	3108148.5226395	NaN	3108149.5060482	3108150.02259037
7	20	1	0	90	36.1581920903955	36.241610738255	10	0.333380839973688	2	6	3	NaN	1	3	0.0371220176202853	0	1	NaN	256	5	4	1	120	220	320	NaN	520	0.437436382751912	1	1	NaN	3108151.0895651	NaN	3108152.073059	3108152.58951052
7	20	1	0	90	36.1581920903955	36.241610738255	6	0.200028503984213	2	3	5	NaN	1	5	0.0371220176202853	0	1	NaN	257	5	5	1	120	220	320	NaN	520	0.287049534730613	1	1	NaN	3108153.839837	NaN	3108154.8232402	3108155.33978417
7	20	1	0	90	36.1581920903955	36.241610738255	12	0.400057007968426	2	2	2	NaN	1	5	0.0371220176202853	0	1	NaN	258	5	6	1	120	220	320	NaN	520	1.13493653479964	1	1	NaN	3108156.4401117	NaN	3108157.4234869	3108157.94004307
7	20	1	0	90	36.1581920903955	36.241610738255	18	0.600085511952639	2	11	4	NaN	2	4	0.0371220176202853	0	1	NaN	259	5	7	1	120	220	320	NaN	520	0.340335137676448	2	1	NaN	3108159.8902884	NaN	3108160.8738286	3108161.39037816
7	20	1	0	90	36.1581920903955	36.241610738255	11	0.366718923971057	2	6	2	NaN	1	4	0.0371220176202853	0	1	NaN	260	5	8	1	120	220	320	NaN	520	0.250023883301765	1	1	NaN	3108162.5407776	NaN	3108163.5240863	3108164.04063582
7	20	1	0	90	36.1581920903955	36.241610738255	22	0.733437847942114	2	11	6	NaN	2	3	0.0371220176202853	0	1	NaN	261	5	9	1	120	220	320	NaN	520	0.291355635039508	2	1	NaN	3108165.1074863	NaN	3108166.0910119	3108166.60755647
7	20	1	0	90	36.1581920903955	36.241610738255	12	0.400057007968426	2	9	1	NaN	2	5	0.0371220176202853	0	1	NaN	262	5	10	1	120	220	320	NaN	520	2.50661173462868	1	0	NaN	3108167.7078487	NaN	3108168.691268	3108169.20781517
7	20	1	0	90	36.1581920903955	36.241610738255	6	0.200028503984213	2	11	4	NaN	2	4	0.0371220176202853	0	1	NaN	263	5	11	1	120	220	320	NaN	520	0.305974386166781	1	0	NaN	3108172.524883	NaN	3108173.5083886	3108174.02496001
7	20	1	0	90	36.1581920903955	36.241610738255	24	0.800114015936851	2	3	3	NaN	1	3	0.0371220176202853	0	1	NaN	264	5	12	1	120	220	320	NaN	520	0.264747632201761	1	1	NaN	3108175.1419363	NaN	3108176.1253202	3108176.64187687
7	20	1	0	90	36.1581920903955	36.241610738255	22	0.733437847942114	2	4	6	NaN	1	5	0.0371220176202853	0	1	NaN	265	5	13	1	120	220	320	NaN	520	0.20994383469224	2	0	NaN	3108177.7088421	NaN	3108178.6922447	3108179.20880237
7	20	1	0	90	36.1581920903955	36.241610738255	11	0.366718923971057	2	2	4	NaN	1	5	0.0371220176202853	0	1	NaN	266	5	14	1	120	220	320	NaN	520	1.80469293426722	1	1	NaN	3108180.2257942	NaN	3108181.209163	3108181.72571757
7	20	1	0	90	36.1581920903955	36.241610738255	11	0.366718923971057	2	12	5	NaN	2	5	0.0371220176202853	0	1	NaN	267	5	15	1	120	220	320	NaN	520	0.247690035030246	2	1	NaN	3108184.3428334	NaN	3108185.326234	3108185.84278077
7	20	1	0	90	36.1581920903955	36.241610738255	16	0.533409343957901	2	4	2	NaN	1	3	0.0371220176202853	0	1	NaN	268	5	16	1	120	220	320	NaN	520	0.233112034387887	1	1	NaN	3108186.9097626	NaN	3108187.8931708	3108188.40970247
7	20	1	0	90	36.1581920903955	36.241610738255	8	0.26670467197895	2	4	4	NaN	1	5	0.0371220176202853	0	1	NaN	269	5	17	1	120	220	320	NaN	520	0.299310435075313	2	0	NaN	3108189.4433211	NaN	3108190.4267268	3108190.94328577
7	20	1	0	90	36.1581920903955	36.241610738255	15	0.500071259960532	2	3	3	NaN	1	5	0.0371220176202853	0	1	NaN	270	5	18	1	120	220	320	NaN	520	0.346594783011824	1	1	NaN	3108192.0602658	NaN	3108193.043659	3108193.56020692
7	20	1	0	90	36.1581920903955	36.241610738255	9	0.300042755976319	2	9	5	NaN	2	3	0.0371220176202853	0	1	NaN	271	5	19	1	120	220	320	NaN	520	0.600238634739071	2	1	NaN	3108194.7104941	NaN	3108195.6939255	3108196.21046817
7	20	1	0	90	36.1581920903955	36.241610738255	15	0.500071259960532	2	8	1	NaN	2	5	0.0371220176202853	0	1	NaN	272	5	20	1	120	220	320	NaN	520	0.291503634769469	2	1	NaN	3108197.6274751	NaN	3108198.6108783	3108199.12742937
7	20	1	0	90	36.1581920903955	36.241610738255	25	0.83345209993422	2	11	1	NaN	2	4	0.0371220176202853	0	1	NaN	273	5	21	1	120	220	320	NaN	520	0.274927880614996	2	1	NaN	3108200.2277062	NaN	3108201.2111723	3108201.72767392
7	20	1	0	90	36.1581920903955	36.241610738255	19	0.633423595950007	2	10	6	NaN	2	5	0.0371220176202853	0	1	NaN	274	5	22	1	120	220	320	NaN	520	0.331692734733224	2	1	NaN	3108202.8113112	NaN	3108203.7947178	3108204.31126617
7	20	1	0	90	36.1581920903955	36.241610738255	13	0.433395091965795	2	3	1	NaN	1	3	0.0371220176202853	0	1	NaN	275	5	23	1	120	220	320	NaN	520	0.241139234509319	2	0	NaN	3108205.4615908	NaN	3108206.4449729	3108206.96152437
7	20	1	0	90	36.1581920903955	36.241610738255	20	0.666761679947376	2	12	4	NaN	2	4	0.0371220176202853	0	1	NaN	276	5	24	1	120	220	320	NaN	520	0.202522334642708	1	0	NaN	3108208.0118368	NaN	3108208.9952303	3108209.51179317
7	20	1	0	90	36.1581920903955	36.241610738255	24	0.800114015936851	2	2	3	NaN	1	5	0.0371220176202853	0	1	NaN	277	5	25	1	120	220	320	NaN	520	0.165884734597057	1	1	NaN	3108210.5287768	NaN	3108211.5121448	3108212.02868467
7	20	1	0	90	36.1581920903955	36.241610738255	11	0.366718923971057	2	12	2	NaN	2	4	0.0371220176202853	0	1	NaN	278	5	26	1	120	220	320	NaN	520	0.298639132175595	1	0	NaN	3108213.01219	NaN	3108213.9957252	3108214.51226867
7	20	1	0	90	36.1581920903955	36.241610738255	24	0.800114015936851	2	10	1	NaN	2	4	0.0371220176202853	0	1	NaN	279	5	27	1	120	220	320	NaN	520	0.361370734870434	2	1	NaN	3108215.6291424	NaN	3108216.612648	3108217.12919357
7	20	1	0	90	36.1581920903955	36.241610738255	20	0.666761679947376	2	9	2	NaN	2	4	0.0371220176202853	0	1	NaN	280	5	28	1	120	220	320	NaN	520	0.182648745831102	2	1	NaN	3108218.2961729	NaN	3108219.2795727	3108219.79612025
7	20	1	0	90	36.1581920903955	36.241610738255	17	0.56674742795527	2	6	2	NaN	1	4	0.0371220176202853	0	1	NaN	281	5	29	1	120	220	320	NaN	520	0.290865394286811	1	1	NaN	3108220.779751	NaN	3108221.763146	3108222.27970951
7	20	1	0	90	36.1581920903955	36.241610738255	16	0.533409343957901	2	6	4	NaN	1	4	0.0371220176202853	0	1	NaN	282	5	30	1	120	220	320	NaN	520	0.306774237658828	1	1	NaN	3108223.3799908	NaN	3108224.3633905	3108224.87996276
7	20	1	0	90	36.1581920903955	36.241610738255	25	0.83345209993422	2	5	4	NaN	1	5	0.0371220176202853	0	1	NaN	283	5	31	1	120	220	320	NaN	520	0.433943134732544	2	0	NaN	3108225.9969441	NaN	3108226.9803223	3108227.49687967
7	20	1	0	90	36.1581920903955	36.241610738255	7	0.233366587981582	2	6	3	NaN	1	5	0.0371220176202853	0	1	NaN	284	5	32	1	120	220	320	NaN	520	0.283632934559137	1	1	NaN	3108228.7470736	NaN	3108229.7304943	3108230.24715177
7	20	1	0	90	36.1581920903955	36.241610738255	13	0.433395091965795	2	6	6	NaN	1	5	0.0371220176202853	0	1	NaN	285	5	33	1	120	220	320	NaN	520	0.395335534587502	1	1	NaN	3108231.3474603	NaN	3108232.3308601	3108232.84740077
7	20	1	0	90	36.1581920903955	36.241610738255	6	0.200028503984213	2	6	4	NaN	1	3	0.0371220176202853	0	1	NaN	286	5	34	1	120	220	320	NaN	520	0.374628883320838	1	1	NaN	3108234.064392	NaN	3108235.0477793	3108235.56433212
7	20	1	0	90	36.1581920903955	36.241610738255	11	0.366718923971057	2	8	2	NaN	2	5	0.0371220176202853	0	1	NaN	287	5	35	1	120	220	320	NaN	520	0.298680842854083	1	0	NaN	3108236.7479843	NaN	3108237.7313942	3108238.24794446
7	20	1	0	90	36.1581920903955	36.241610738255	23	0.766775931939483	2	2	6	NaN	1	5	0.0371220176202853	0	1	NaN	288	5	36	1	120	220	320	NaN	520	0.305645883083344	1	1	NaN	3108239.364905	NaN	3108240.3483027	3108240.86486632
7	20	1	0	90	36.1581920903955	36.241610738255	18	0.600085511952639	2	1	1	NaN	1	5	0.0371220176202853	0	1	NaN	289	5	37	1	120	220	320	NaN	520	0.225041585974395	1	1	NaN	3108241.9818206	NaN	3108242.9652326	3108243.48179031
7	20	1	0	90	36.1581920903955	36.241610738255	9	0.300042755976319	2	9	6	NaN	2	4	0.0371220176202853	0	1	NaN	290	5	38	1	120	220	320	NaN	520	0.195449634455144	1	0	NaN	3108244.5154281	NaN	3108245.4988131	3108246.01536887
7	20	1	0	90	36.1581920903955	36.241610738255	19	0.633423595950007	2	10	4	NaN	2	3	0.0371220176202853	0	1	NaN	291	5	39	1	120	220	320	NaN	520	0.295174434781075	1	0	NaN	3108247.0156802	NaN	3108247.9991107	3108248.51561487
7	20	1	0	90	36.1581920903955	36.241610738255	22	0.733437847942114	2	4	6	NaN	1	3	0.0371220176202853	0	1	NaN	292	5	40	1	120	220	320	NaN	520	0.382108482997864	1	1	NaN	3108249.6326001	NaN	3108250.6159849	3108251.13253452
7	20	1	0	90	36.1581920903955	36.241610738255	25	0.83345209993422	2	10	5	NaN	2	3	0.0371220176202853	0	1	NaN	293	5	41	1	120	220	320	NaN	520	0.209906634874642	1	0	NaN	3108252.3328455	NaN	3108253.3162336	3108253.83280797
7	20	1	0	90	36.1581920903955	36.241610738255	15	0.500071259960532	2	2	1	NaN	1	5	0.0371220176202853	0	1	NaN	294	5	42	1	120	220	320	NaN	520	0.0103878858499229	1	1	NaN	3108254.8497573	NaN	3108255.8331633	3108256.34972401
7	20	1	0	90	36.1581920903955	36.241610738255	17	0.56674742795527	2	12	2	NaN	2	5	0.0371220176202853	0	1	NaN	295	5	43	1	120	220	320	NaN	520	0.0104147829115391	2	1	NaN	3108257.166526	NaN	3108258.1500628	3108258.66660412
7	20	1	0	90	36.1581920903955	36.241610738255	16	0.533409343957901	2	11	5	NaN	2	5	0.0371220176202853	0	1	NaN	296	5	44	1	120	220	320	NaN	520	0.243210734799504	2	1	NaN	3108259.4834935	NaN	3108260.4669561	3108260.98351077
7	20	1	0	90	36.1581920903955	36.241610738255	11	0.366718923971057	2	9	3	NaN	2	3	0.0371220176202853	0	1	NaN	297	5	45	1	120	220	320	NaN	520	0.220284131821245	2	1	NaN	3108262.0504687	NaN	3108263.03388	3108263.55041897
7	20	1	0	90	36.1581920903955	36.241610738255	18	0.600085511952639	2	10	2	NaN	2	5	0.0371220176202853	0	1	NaN	298	5	46	1	120	220	320	NaN	520	0.206512582954019	1	0	NaN	3108264.584046	NaN	3108265.5674548	3108266.08401472
7	20	1	0	90	36.1581920903955	36.241610738255	11	0.366718923971057	2	11	6	NaN	2	3	0.0371220176202853	0	1	NaN	299	5	47	1	120	220	320	NaN	520	0.217885434627533	2	1	NaN	3108267.1008692	NaN	3108268.0843791	3108268.60092457
7	20	1	0	90	36.1581920903955	36.241610738255	15	0.500071259960532	2	5	1	NaN	1	5	0.0371220176202853	0	1	NaN	300	5	48	1	120	220	320	NaN	520	0.284553331788629	2	0	NaN	3108269.6345588	NaN	3108270.617957	3108271.13450537
7	20	1	0	90	36.1581920903955	36.241610738255	13	0.433395091965795	2	11	2	NaN	2	5	0.0371220176202853	0	1	NaN	301	5	49	1	120	220	320	NaN	520	0.260273234453052	2	1	NaN	3108272.2346897	NaN	3108273.2182121	3108273.73475867
7	20	1	0	90	36.1581920903955	36.241610738255	14	0.466733175963163	2	4	1	NaN	1	4	0.0371220176202853	0	1	NaN	302	5	50	1	120	220	320	NaN	520	0.373102582991123	1	1	NaN	3108274.8017169	NaN	3108275.7851675	3108276.30167142
7	20	1	0	90	36.1581920903955	36.241610738255	15	0.500071259960532	2	7	1	NaN	2	4	0.0371220176202853	0	1	NaN	303	5	51	1	120	220	320	NaN	520	0.425389534793794	2	1	NaN	3108277.4853238	NaN	3108278.4687287	3108278.98528277
7	20	1	0	90	36.1581920903955	36.241610738255	0	0	1	4	4	NaN	1	5	0.0371220176202853	0	1	NaN	304	5	52	1	110	210	310	NaN	510	0.387857683002949	1	1	NaN	3108280.2189404	NaN	3108281.2023579	3108281.71888402
7	20	1	0	90	36.1581920903955	36.241610738255	23	0.766775931939483	2	6	5	NaN	1	5	0.0371220176202853	0	1	NaN	305	5	53	1	120	220	320	NaN	520	0.487904534675181	1	1	NaN	3108282.9191981	NaN	3108283.9025985	3108284.41914417
7	20	1	0	90	36.1581920903955	36.241610738255	20	0.666761679947376	2	5	2	NaN	1	4	0.0371220176202853	0	1	NaN	306	5	54	1	120	220	320	NaN	520	0.175337634515017	2	0	NaN	3108285.7194808	NaN	3108286.7028764	3108287.21942077
7	20	1	0	90	36.1581920903955	36.241610738255	12	0.400057007968426	2	6	2	NaN	1	4	0.0371220176202853	0	1	NaN	307	5	55	1	120	220	320	NaN	520	0.235135034658015	1	1	NaN	3108288.2197118	NaN	3108289.2031182	3108289.71966807
7	20	1	0	90	36.1581920903955	36.241610738255	15	0.500071259960532	2	9	3	NaN	2	5	0.0371220176202853	0	1	NaN	308	5	56	1	120	220	320	NaN	520	0.244758231565356	1	0	NaN	3108290.7699628	NaN	3108291.753365	3108292.26991887
7	20	1	0	90	36.1581920903955	36.241610738255	0	0	1	9	4	NaN	2	3	0.0371220176202853	0	1	NaN	309	5	57	1	110	210	310	NaN	510	0.262851583305746	1	0	NaN	3108293.3202262	NaN	3108294.3036081	3108294.82017872
7	20	1	0	90	36.1581920903955	36.241610738255	18	0.600085511952639	2	2	3	NaN	1	4	0.0371220176202853	0	1	NaN	310	5	58	1	120	220	320	NaN	520	0.263811483047903	2	0	NaN	3108295.8872244	NaN	3108296.8705083	3108297.38708562
7	20	1	0	90	36.1581920903955	36.241610738255	20	0.666761679947376	2	11	3	NaN	2	5	0.0371220176202853	0	1	NaN	311	5	59	1	120	220	320	NaN	520	0.216288683004677	2	1	NaN	3108298.4707138	NaN	3108299.454107	3108299.97067282
7	20	1	0	90	36.1581920903955	36.241610738255	19	0.633423595950007	2	8	6	NaN	2	5	0.0371220176202853	0	1	NaN	312	5	60	1	120	220	320	NaN	520	0.298495282884687	1	0	NaN	3108301.0042973	NaN	3108301.9877024	3108302.50425552
7	20	1	0	90	36.1581920903955	36.241610738255	23	0.766775931939483	2	2	2	NaN	1	3	0.0371220176202853	0	1	NaN	313	5	61	1	120	220	320	NaN	520	0.209537235088646	1	1	NaN	3108303.6212349	NaN	3108304.6046354	3108305.12118017
7	20	1	0	90	36.1581920903955	36.241610738255	0	0	1	6	5	NaN	1	4	0.0371220176202853	0	1	NaN	314	5	62	1	110	210	310	NaN	510	0.0104105831123888	2	0	NaN	3108306.1381328	NaN	3108307.1215977	3108307.63809422
7	20	1	0	90	36.1581920903955	36.241610738255	11	0.366718923971057	2	6	1	NaN	1	4	0.0371220176202853	0	1	NaN	315	5	63	1	120	220	320	NaN	520	0.287636434659362	1	1	NaN	3108308.4550441	NaN	3108309.4384432	3108309.95499477
7	20	1	0	90	36.1581920903955	36.241610738255	25	0.83345209993422	2	3	6	NaN	1	3	0.0371220176202853	0	1	NaN	316	6	1	1	120	220	320	NaN	520	0.13884073169902	1	1	NaN	3108321.7563465	NaN	3108322.7397595	3108323.25629197
7	20	1	0	90	36.1581920903955	36.241610738255	18	0.600085511952639	2	5	3	NaN	1	4	0.0371220176202853	0	1	NaN	317	6	2	1	120	220	320	NaN	520	0.248087435029447	2	0	NaN	3108324.2066003	NaN	3108325.189987	3108325.70654547
7	20	1	0	90	36.1581920903955	36.241610738255	8	0.26670467197895	2	2	4	NaN	1	5	0.0371220176202853	0	1	NaN	318	6	3	1	120	220	320	NaN	520	0.353628335054964	2	0	NaN	3108326.7735133	NaN	3108327.7569104	3108328.27345617
7	20	1	0	90	36.1581920903955	36.241610738255	12	0.400057007968426	2	3	3	NaN	1	3	0.0371220176202853	0	1	NaN	319	6	4	1	120	220	320	NaN	520	0.142412440385669	1	1	NaN	3108329.4402667	NaN	3108330.4238566	3108330.94039286
7	20	1	0	90	36.1581920903955	36.241610738255	13	0.433395091965795	2	3	1	NaN	1	3	0.0371220176202853	0	1	NaN	320	6	5	1	120	220	320	NaN	520	0.140160783194005	2	0	NaN	3108331.8906551	NaN	3108332.8740789	3108333.39063502
7	20	1	0	90	36.1581920903955	36.241610738255	12	0.400057007968426	2	9	3	NaN	2	3	0.0371220176202853	0	1	NaN	321	6	6	1	120	220	320	NaN	520	0.314288283232599	1	0	NaN	3108334.3409274	NaN	3108335.3243161	3108335.84087612
7	20	1	0	90	36.1581920903955	36.241610738255	24	0.800114015936851	2	4	3	NaN	1	4	0.0371220176202853	0	1	NaN	322	6	7	1	120	220	320	NaN	520	0.168306634761393	2	0	NaN	3108336.974475	NaN	3108337.9579381	3108338.47446327
7	20	1	0	90	36.1581920903955	36.241610738255	9	0.300042755976319	2	8	4	NaN	2	4	0.0371220176202853	0	1	NaN	323	6	8	1	120	220	320	NaN	520	0.116845674347132	2	1	NaN	3108339.4581064	NaN	3108340.4414852	3108340.95804193
7	20	1	0	90	36.1581920903955	36.241610738255	24	0.800114015936851	2	10	4	NaN	2	5	0.0371220176202853	0	1	NaN	324	6	9	1	120	220	320	NaN	520	0.291053437627852	2	1	NaN	3108341.8916706	NaN	3108342.8750514	3108343.39161626
7	20	1	0	90	36.1581920903955	36.241610738255	22	0.733437847942114	2	1	2	NaN	1	3	0.0371220176202853	0	1	NaN	325	6	10	1	120	220	320	NaN	520	0.242991446051747	2	0	NaN	3108344.4919177	NaN	3108345.4753198	3108345.99187595
7	20	1	0	90	36.1581920903955	36.241610738255	18	0.600085511952639	2	8	3	NaN	2	3	0.0371220176202853	0	1	NaN	326	6	11	1	120	220	320	NaN	520	0.275875934865326	2	1	NaN	3108347.0588425	NaN	3108348.0422135	3108348.55879317
7	20	1	0	90	36.1581920903955	36.241610738255	23	0.766775931939483	2	9	4	NaN	2	4	0.0371220176202853	0	1	NaN	327	6	12	1	120	220	320	NaN	520	0.0105178318917751	1	0	NaN	3108349.6590879	NaN	3108350.6424858	3108351.15905547
7	20	1	0	90	36.1581920903955	36.241610738255	10	0.333380839973688	2	4	3	NaN	1	3	0.0371220176202853	0	1	NaN	328	6	13	1	120	220	320	NaN	520	0.294786185957491	2	0	NaN	3108351.9760264	NaN	3108352.9593787	3108353.47594411
7	20	1	0	90	36.1581920903955	36.241610738255	0	0	1	3	1	NaN	1	5	0.0371220176202853	0	1	NaN	329	6	14	1	110	210	310	NaN	510	0.366585494484752	2	0	NaN	3108354.5762528	NaN	3108355.5596758	3108356.07620131
7	20	1	0	90	36.1581920903955	36.241610738255	9	0.300042755976319	2	5	1	NaN	1	4	0.0371220176202853	0	1	NaN	330	6	15	1	120	220	320	NaN	520	0.363667282741517	2	0	NaN	3108357.2431655	NaN	3108358.2265693	3108358.74312532
7	20	1	0	90	36.1581920903955	36.241610738255	6	0.200028503984213	2	2	1	NaN	1	3	0.0371220176202853	0	1	NaN	331	6	16	1	120	220	320	NaN	520	0.568112996872514	1	1	NaN	3108359.9266263	NaN	3108360.9101668	3108361.4267286
7	20	1	0	90	36.1581920903955	36.241610738255	22	0.733437847942114	2	12	2	NaN	2	4	0.0371220176202853	0	1	NaN	332	6	17	1	120	220	320	NaN	520	1.09243348287418	1	0	NaN	3108362.8103855	NaN	3108363.7937665	3108364.31032922
7	20	1	0	90	36.1581920903955	36.241610738255	15	0.500071259960532	2	12	5	NaN	2	3	0.0371220176202853	0	1	NaN	333	6	18	1	120	220	320	NaN	520	0.340513094328344	2	1	NaN	3108366.2108145	NaN	3108367.1941409	3108367.71066951
7	20	1	0	90	36.1581920903955	36.241610738255	19	0.633423595950007	2	3	2	NaN	1	4	0.0371220176202853	0	1	NaN	334	6	19	1	120	220	320	NaN	520	0.210292540024966	1	1	NaN	3108368.8609727	NaN	3108369.8443791	3108370.36094076
7	20	1	0	90	36.1581920903955	36.241610738255	10	0.333380839973688	2	8	6	NaN	2	4	0.0371220176202853	0	1	NaN	335	6	20	1	120	220	320	NaN	520	0.30090378317982	2	1	NaN	3108371.3779274	NaN	3108372.3613	3108372.87784662
7	20	1	0	90	36.1581920903955	36.241610738255	6	0.200028503984213	2	10	2	NaN	2	5	0.0371220176202853	0	1	NaN	336	6	21	1	120	220	320	NaN	520	0.140221780631691	2	1	NaN	3108374.1948328	NaN	3108375.1782459	3108375.69478622
7	20	1	0	90	36.1581920903955	36.241610738255	7	0.233366587981582	2	5	5	NaN	1	4	0.0371220176202853	0	1	NaN	337	6	22	1	120	220	320	NaN	520	0.145965396892279	1	1	NaN	3108376.6450726	NaN	3108377.6285031	3108378.1450426
7	20	1	0	90	36.1581920903955	36.241610738255	16	0.533409343957901	2	2	1	NaN	1	4	0.0371220176202853	0	1	NaN	338	6	23	1	120	220	320	NaN	520	0.278793534263968	1	1	NaN	3108379.1119927	NaN	3108380.0953691	3108380.61194017
7	20	1	0	90	36.1581920903955	36.241610738255	16	0.533409343957901	2	3	6	NaN	1	3	0.0371220176202853	0	1	NaN	339	6	24	1	120	220	320	NaN	520	0.279053194448352	2	0	NaN	3108381.7122537	NaN	3108382.6955971	3108383.21219971
7	20	1	0	90	36.1581920903955	36.241610738255	8	0.26670467197895	2	5	1	NaN	1	5	0.0371220176202853	0	1	NaN	340	6	25	1	120	220	320	NaN	520	0.211165282875299	2	0	NaN	3108384.3958439	NaN	3108385.3792235	3108385.89578682
7	20	1	0	90	36.1581920903955	36.241610738255	16	0.533409343957901	2	1	6	NaN	1	3	0.0371220176202853	0	1	NaN	341	6	26	1	120	220	320	NaN	520	0.293531189206988	2	0	NaN	3108386.9295099	NaN	3108387.9128169	3108388.42937061
7	20	1	0	90	36.1581920903955	36.241610738255	15	0.500071259960532	2	10	1	NaN	2	4	0.0371220176202853	0	1	NaN	342	6	27	1	120	220	320	NaN	520	0.268634483218193	2	1	NaN	3108389.5463549	NaN	3108390.5297473	3108391.04629932
7	20	1	0	90	36.1581920903955	36.241610738255	11	0.366718923971057	2	5	2	NaN	1	3	0.0371220176202853	0	1	NaN	343	6	28	1	120	220	320	NaN	520	0.301052582915872	1	1	NaN	3108392.1299443	NaN	3108393.1133425	3108393.62988782
7	20	1	0	90	36.1581920903955	36.241610738255	10	0.333380839973688	2	1	1	NaN	1	4	0.0371220176202853	0	1	NaN	344	6	29	1	120	220	320	NaN	520	0.268362334929407	2	0	NaN	3108394.7468595	NaN	3108395.7302677	3108396.24680897
7	20	1	0	90	36.1581920903955	36.241610738255	17	0.56674742795527	2	5	6	NaN	1	3	0.0371220176202853	0	1	NaN	345	6	30	1	120	220	320	NaN	520	0.188533046282828	2	0	NaN	3108397.3304964	NaN	3108398.3138559	3108398.83040485
7	20	1	0	90	36.1581920903955	36.241610738255	13	0.433395091965795	2	2	3	NaN	1	4	0.0371220176202853	0	1	NaN	346	6	31	1	120	220	320	NaN	520	0.232660234905779	1	1	NaN	3108399.8306886	NaN	3108400.8141022	3108401.33063897
7	20	1	0	90	36.1581920903955	36.241610738255	24	0.800114015936851	2	6	3	NaN	1	3	0.0371220176202853	0	1	NaN	347	6	32	1	120	220	320	NaN	520	0.0421617827378213	1	1	NaN	3108402.3809342	NaN	3108403.364331	3108403.88089532
7	20	1	0	90	36.1581920903955	36.241610738255	13	0.433395091965795	2	8	2	NaN	2	4	0.0371220176202853	0	1	NaN	348	6	33	1	120	220	320	NaN	520	0.199082134757191	2	1	NaN	3108404.8477166	NaN	3108405.831249	3108406.34780297
7	20	1	0	90	36.1581920903955	36.241610738255	12	0.400057007968426	2	5	2	NaN	1	5	0.0371220176202853	0	1	NaN	349	6	34	1	120	220	320	NaN	520	0.226250334642828	1	1	NaN	3108407.3647799	NaN	3108408.34819	3108408.86471877
7	20	1	0	90	36.1581920903955	36.241610738255	22	0.733437847942114	2	9	4	NaN	2	3	0.0371220176202853	0	1	NaN	350	6	35	1	120	220	320	NaN	520	0.252642334904522	2	1	NaN	3108409.89835	NaN	3108410.8817599	3108411.39830557
7	20	1	0	90	36.1581920903955	36.241610738255	0	0	1	4	2	NaN	1	4	0.0371220176202853	0	1	NaN	351	6	36	1	110	210	310	NaN	510	0.237736883107573	2	0	NaN	3108412.4652753	NaN	3108413.4486559	3108413.96521652
7	20	1	0	90	36.1581920903955	36.241610738255	0	0	1	5	3	NaN	1	3	0.0371220176202853	0	1	NaN	352	6	37	1	110	210	310	NaN	510	0.206623382866383	2	0	NaN	3108415.2487693	NaN	3108416.232256	3108416.74882282
7	20	1	0	90	36.1581920903955	36.241610738255	23	0.766775931939483	2	3	6	NaN	1	3	0.0371220176202853	0	1	NaN	353	6	38	1	120	220	320	NaN	520	0.313447283115238	2	0	NaN	3108417.7658896	NaN	3108418.7492632	3108419.26574602
7	20	1	0	90	36.1581920903955	36.241610738255	10	0.333380839973688	2	2	3	NaN	1	4	0.0371220176202853	0	1	NaN	354	6	39	1	120	220	320	NaN	520	0.239712334703654	1	1	NaN	3108420.3992562	NaN	3108421.3827845	3108421.89933667
7	20	1	0	90	36.1581920903955	36.241610738255	8	0.26670467197895	2	5	4	NaN	1	4	0.0371220176202853	0	1	NaN	355	6	40	1	120	220	320	NaN	520	0.249266382772475	1	1	NaN	3108422.9496451	NaN	3108423.9330204	3108424.44958212
7	20	1	0	90	36.1581920903955	36.241610738255	19	0.633423595950007	2	1	4	NaN	1	4	0.0371220176202853	0	1	NaN	356	6	41	1	120	220	320	NaN	520	0.458714234642684	1	1	NaN	3108425.516572	NaN	3108426.4999602	3108427.01650497
7	20	1	0	90	36.1581920903955	36.241610738255	14	0.466733175963163	2	3	3	NaN	1	5	0.0371220176202853	0	1	NaN	357	6	42	1	120	220	320	NaN	520	0.275233780499548	1	1	NaN	3108428.3000553	NaN	3108429.2835657	3108429.80010782
7	20	1	0	90	36.1581920903955	36.241610738255	21	0.700099763944745	2	2	5	NaN	1	5	0.0371220176202853	0	1	NaN	358	6	43	1	120	220	320	NaN	520	0.323151834774762	1	1	NaN	3108430.883812	NaN	3108431.8671483	3108432.38369727
7	20	1	0	90	36.1581920903955	36.241610738255	8	0.26670467197895	2	3	1	NaN	1	3	0.0371220176202853	0	1	NaN	359	6	44	1	120	220	320	NaN	520	0.281641283072531	2	0	NaN	3108433.5172272	NaN	3108434.5007418	3108435.01728312
7	20	1	0	90	36.1581920903955	36.241610738255	21	0.700099763944745	2	3	5	NaN	1	5	0.0371220176202853	0	1	NaN	360	6	45	1	120	220	320	NaN	520	0.409338934812695	1	1	NaN	3108436.1176034	NaN	3108437.1010178	3108437.61755037
7	20	1	0	90	36.1581920903955	36.241610738255	19	0.633423595950007	2	9	1	NaN	2	3	0.0371220176202853	0	1	NaN	361	6	46	1	120	220	320	NaN	520	0.31586803169921	2	1	NaN	3108438.8512129	NaN	3108439.8345899	3108440.35114037
7	20	1	0	90	36.1581920903955	36.241610738255	23	0.766775931939483	2	1	5	NaN	1	5	0.0371220176202853	0	1	NaN	362	6	47	1	120	220	320	NaN	520	0.442198283039033	2	0	NaN	3108441.484791	NaN	3108442.4681899	3108442.98473472
7	20	1	0	90	36.1581920903955	36.241610738255	14	0.466733175963163	2	8	5	NaN	2	3	0.0371220176202853	0	1	NaN	363	6	48	1	120	220	320	NaN	520	0.316282532177866	2	1	NaN	3108444.2350765	NaN	3108445.2184575	3108445.73500417
7	20	1	0	90	36.1581920903955	36.241610738255	20	0.666761679947376	2	10	2	NaN	2	5	0.0371220176202853	0	1	NaN	364	6	49	1	120	220	320	NaN	520	0.306686126627028	1	0	NaN	3108446.8686816	NaN	3108447.8520318	3108448.36860707
7	20	1	0	90	36.1581920903955	36.241610738255	12	0.400057007968426	2	10	3	NaN	2	3	0.0371220176202853	0	1	NaN	365	6	50	1	120	220	320	NaN	520	0.361559982877225	2	1	NaN	3108449.4855867	NaN	3108450.4689801	3108450.98552542
7	20	1	0	90	36.1581920903955	36.241610738255	6	0.200028503984213	2	12	1	NaN	2	5	0.0371220176202853	0	1	NaN	366	6	51	1	120	220	320	NaN	520	0.26980363484472	2	1	NaN	3108452.1691688	NaN	3108453.1525777	3108453.66912837
7	20	1	0	90	36.1581920903955	36.241610738255	6	0.200028503984213	2	3	5	NaN	1	5	0.0371220176202853	0	1	NaN	367	6	52	1	120	220	320	NaN	520	0.246432583313435	1	1	NaN	3108454.752774	NaN	3108455.7361707	3108456.25271042
7	20	1	0	90	36.1581920903955	36.241610738255	10	0.333380839973688	2	9	1	NaN	2	3	0.0371220176202853	0	1	NaN	368	6	53	1	120	220	320	NaN	520	0.391345582902431	2	1	NaN	3108457.3196908	NaN	3108458.3030584	3108458.81962532
7	20	1	0	90	36.1581920903955	36.241610738255	13	0.433395091965795	2	7	4	NaN	2	3	0.0371220176202853	0	1	NaN	369	6	54	1	120	220	320	NaN	520	0.315440283156931	2	1	NaN	3108460.0199598	NaN	3108461.003326	3108461.51989452
7	20	1	0	90	36.1581920903955	36.241610738255	15	0.500071259960532	2	7	5	NaN	2	5	0.0371220176202853	0	1	NaN	370	6	55	1	120	220	320	NaN	520	0.201549634803087	2	1	NaN	3108462.6535328	NaN	3108463.6369222	3108464.15348887
7	20	1	0	90	36.1581920903955	36.241610738255	9	0.300042755976319	2	4	4	NaN	1	5	0.0371220176202853	0	1	NaN	371	6	56	1	120	220	320	NaN	520	0.132577983196825	1	1	NaN	3108465.1704489	NaN	3108466.1538458	3108466.67039602
7	20	1	0	90	36.1581920903955	36.241610738255	17	0.56674742795527	2	1	5	NaN	1	5	0.0371220176202853	0	1	NaN	372	6	57	1	120	220	320	NaN	520	0.0102758458815515	1	1	NaN	3108467.620686	NaN	3108468.6039857	3108469.12065135
7	20	1	0	90	36.1581920903955	36.241610738255	9	0.300042755976319	2	6	4	NaN	1	3	0.0371220176202853	0	1	NaN	373	6	58	1	120	220	320	NaN	520	0.22086013155058	1	1	NaN	3108469.9542672	NaN	3108470.9376576	3108471.45419947
7	20	1	0	90	36.1581920903955	36.241610738255	17	0.56674742795527	2	2	1	NaN	1	4	0.0371220176202853	0	1	NaN	374	6	59	1	120	220	320	NaN	520	0.279559334274381	2	0	NaN	3108472.4878447	NaN	3108473.4712398	3108473.98779337
7	20	1	0	90	36.1581920903955	36.241610738255	21	0.700099763944745	2	6	6	NaN	1	5	0.0371220176202853	0	1	NaN	375	6	60	1	120	220	320	NaN	520	0.343618634622544	1	1	NaN	3108475.0713302	NaN	3108476.0548381	3108476.57138297
7	20	1	0	90	36.1581920903955	36.241610738255	17	0.56674742795527	2	11	6	NaN	2	4	0.0371220176202853	0	1	NaN	376	6	61	1	120	220	320	NaN	520	0.277234134729952	2	1	NaN	3108477.7216922	NaN	3108478.7050801	3108479.22163787
7	20	1	0	90	36.1581920903955	36.241610738255	7	0.233366587981582	2	2	3	NaN	1	3	0.0371220176202853	0	1	NaN	377	6	62	1	120	220	320	NaN	520	0.174087882973254	1	1	NaN	3108480.3052661	NaN	3108481.2886661	3108481.80524202
7	20	1	0	90	36.1581920903955	36.241610738255	11	0.366718923971057	2	5	1	NaN	1	5	0.0371220176202853	0	1	NaN	378	6	63	1	120	220	320	NaN	520	0.210089289117604	1	1	NaN	3108482.7888783	NaN	3108483.7722416	3108484.28880971
7	20	1	0	90	36.1581920903955	36.241610738255	20	0.666761679947376	2	2	2	NaN	1	4	0.0371220176202853	0	1	NaN	379	7	1	1	120	220	320	NaN	520	0.349285634700209	2	0	NaN	3108514.0419184	NaN	3108515.0253572	3108515.54187507
7	20	1	0	90	36.1581920903955	36.241610738255	7	0.233366587981582	2	1	4	NaN	1	5	0.0371220176202853	0	1	NaN	380	7	2	1	120	220	320	NaN	520	0.32233578292653	2	0	NaN	3108516.7087351	NaN	3108517.6922501	3108518.20880452
7	20	1	0	90	36.1581920903955	36.241610738255	20	0.666761679947376	2	7	4	NaN	2	4	0.0371220176202853	0	1	NaN	381	7	3	1	120	220	320	NaN	520	0.177034234628081	2	1	NaN	3108519.3424361	NaN	3108520.3258255	3108520.84240127
7	20	1	0	90	36.1581920903955	36.241610738255	21	0.700099763944745	2	8	1	NaN	2	4	0.0371220176202853	0	1	NaN	382	7	4	1	120	220	320	NaN	520	0.237183982972056	2	1	NaN	3108521.8260403	NaN	3108522.8094252	3108523.32598232
7	20	1	0	90	36.1581920903955	36.241610738255	9	0.300042755976319	2	8	6	NaN	2	4	0.0371220176202853	0	1	NaN	383	7	5	1	120	220	320	NaN	520	0.206968488637358	1	0	NaN	3108524.3761221	NaN	3108525.3596936	3108525.87622971
7	20	1	0	90	36.1581920903955	36.241610738255	10	0.333380839973688	2	6	6	NaN	1	4	0.0371220176202853	0	1	NaN	384	7	6	1	120	220	320	NaN	520	0.226196145638824	1	1	NaN	3108526.8932408	NaN	3108527.8765815	3108528.39313885
7	20	1	0	90	36.1581920903955	36.241610738255	13	0.433395091965795	2	5	4	NaN	1	4	0.0371220176202853	0	1	NaN	385	7	7	1	120	220	320	NaN	520	0.188440485857427	1	1	NaN	3108529.426777	NaN	3108530.4101731	3108530.92672961
7	20	1	0	90	36.1581920903955	36.241610738255	23	0.766775931939483	2	5	4	NaN	1	5	0.0371220176202853	0	1	NaN	386	7	8	1	120	220	320	NaN	520	0.168213834986091	1	1	NaN	3108531.9270173	NaN	3108532.9104292	3108533.42697607
7	20	1	0	90	36.1581920903955	36.241610738255	22	0.733437847942114	2	10	4	NaN	2	3	0.0371220176202853	0	1	NaN	387	7	9	1	120	220	320	NaN	520	0.308606134727597	2	1	NaN	3108534.4106002	NaN	3108535.3939953	3108535.91057027
7	20	1	0	90	36.1581920903955	36.241610738255	19	0.633423595950007	2	12	3	NaN	2	5	0.0371220176202853	0	1	NaN	388	7	10	1	120	220	320	NaN	520	0.243891734629869	2	1	NaN	3108537.0273954	NaN	3108538.0109024	3108538.52747637
7	20	1	0	90	36.1581920903955	36.241610738255	21	0.700099763944745	2	1	3	NaN	1	5	0.0371220176202853	0	1	NaN	389	7	11	1	120	220	320	NaN	520	0.213463234715164	1	1	NaN	3108539.5776807	NaN	3108540.5611688	3108541.07772197
7	20	1	0	90	36.1581920903955	36.241610738255	14	0.466733175963163	2	6	1	NaN	1	3	0.0371220176202853	0	1	NaN	390	7	12	1	120	220	320	NaN	520	0.208407531958073	1	1	NaN	3108542.0946305	NaN	3108543.078093	3108543.59462857
7	20	1	0	90	36.1581920903955	36.241610738255	13	0.433395091965795	2	10	1	NaN	2	4	0.0371220176202853	0	1	NaN	391	7	13	1	120	220	320	NaN	520	0.211444134358317	2	1	NaN	3108544.6115916	NaN	3108545.5950293	3108546.11155387
7	20	1	0	90	36.1581920903955	36.241610738255	24	0.800114015936851	2	7	3	NaN	2	3	0.0371220176202853	0	1	NaN	392	7	14	1	120	220	320	NaN	520	0.270567783154547	2	1	NaN	3108547.1285098	NaN	3108548.11189	3108548.62845872
7	20	1	0	90	36.1581920903955	36.241610738255	23	0.766775931939483	2	10	1	NaN	2	5	0.0371220176202853	0	1	NaN	393	7	15	1	120	220	320	NaN	520	0.231463085860014	2	1	NaN	3108549.7121067	NaN	3108550.6955096	3108551.21204891
7	20	1	0	90	36.1581920903955	36.241610738255	12	0.400057007968426	2	8	2	NaN	2	5	0.0371220176202853	0	1	NaN	394	7	16	1	120	220	320	NaN	520	0.344908132217824	2	1	NaN	3108552.262366	NaN	3108553.2457523	3108553.76229527
7	20	1	0	90	36.1581920903955	36.241610738255	9	0.300042755976319	2	11	6	NaN	2	3	0.0371220176202853	0	1	NaN	395	7	17	1	120	220	320	NaN	520	0.206378226168454	1	0	NaN	3108554.9126039	NaN	3108555.8960167	3108556.41256647
7	20	1	0	90	36.1581920903955	36.241610738255	7	0.233366587981582	2	4	5	NaN	1	5	0.0371220176202853	0	1	NaN	396	7	18	1	120	220	320	NaN	520	0.361547383014113	1	1	NaN	3108557.4295185	NaN	3108558.4129268	3108558.92946992
7	20	1	0	90	36.1581920903955	36.241610738255	18	0.600085511952639	2	6	3	NaN	1	5	0.0371220176202853	0	1	NaN	397	7	19	1	120	220	320	NaN	520	0.165744434576482	2	0	NaN	3108560.1131286	NaN	3108561.096502	3108561.61307967
7	20	1	0	90	36.1581920903955	36.241610738255	19	0.633423595950007	2	11	1	NaN	2	3	0.0371220176202853	0	1	NaN	398	7	20	1	120	220	320	NaN	520	0.178496582899243	2	1	NaN	3108562.5967185	NaN	3108563.5800998	3108564.09665122
7	20	1	0	90	36.1581920903955	36.241610738255	16	0.533409343957901	2	4	3	NaN	1	5	0.0371220176202853	0	1	NaN	399	7	21	1	120	220	320	NaN	520	0.230387934949249	1	1	NaN	3108565.0969264	NaN	3108566.0803709	3108566.59689977
7	20	1	0	90	36.1581920903955	36.241610738255	16	0.533409343957901	2	9	6	NaN	2	3	0.0371220176202853	0	1	NaN	400	7	22	1	120	220	320	NaN	520	0.288036282639951	2	1	NaN	3108567.6471973	NaN	3108568.6305905	3108569.14714472
7	20	1	0	90	36.1581920903955	36.241610738255	17	0.56674742795527	2	10	3	NaN	2	3	0.0371220176202853	0	1	NaN	401	7	23	1	120	220	320	NaN	520	0.327561391983181	2	1	NaN	3108570.2473343	NaN	3108571.2308606	3108571.74741201
7	20	1	0	90	36.1581920903955	36.241610738255	0	0	1	1	1	NaN	1	5	0.0371220176202853	0	1	NaN	402	7	24	1	110	210	310	NaN	510	0.222332834266126	1	1	NaN	3108572.8810386	NaN	3108573.8644827	3108574.38100387
7	20	1	0	90	36.1581920903955	36.241610738255	13	0.433395091965795	2	5	2	NaN	1	5	0.0371220176202853	0	1	NaN	403	7	25	1	120	220	320	NaN	520	0.360570534598082	1	1	NaN	3108575.4146258	NaN	3108576.3980382	3108576.91458657
7	20	1	0	90	36.1581920903955	36.241610738255	11	0.366718923971057	2	1	5	NaN	1	4	0.0371220176202853	0	1	NaN	404	7	26	1	120	220	320	NaN	520	0.285676083061844	2	0	NaN	3108578.0815573	NaN	3108579.0649515	3108579.58150802
7	20	1	0	90	36.1581920903955	36.241610738255	18	0.600085511952639	2	9	5	NaN	2	5	0.0371220176202853	0	1	NaN	405	7	27	1	120	220	320	NaN	520	0.829241537954658	1	0	NaN	3108580.6818083	NaN	3108581.6652132	3108582.18177256
7	20	1	0	90	36.1581920903955	36.241610738255	15	0.500071259960532	2	4	3	NaN	1	3	0.0371220176202853	0	1	NaN	406	7	28	1	120	220	320	NaN	520	0.335161734372377	1	1	NaN	3108583.8319932	NaN	3108584.8155247	3108585.33207987
7	20	1	0	90	36.1581920903955	36.241610738255	19	0.633423595950007	2	2	1	NaN	1	3	0.0371220176202853	0	1	NaN	407	7	29	1	120	220	320	NaN	520	3.55680213449523	2	0	NaN	3108586.4823917	NaN	3108587.4657918	3108587.98233297
7	20	1	0	90	36.1581920903955	36.241610738255	19	0.633423595950007	2	5	1	NaN	1	3	0.0371220176202853	0	1	NaN	408	7	30	1	120	220	320	NaN	520	0.249656131956726	2	0	NaN	3108592.3496471	NaN	3108593.3330275	3108593.84957927
7	20	1	0	90	36.1581920903955	36.241610738255	14	0.466733175963163	2	2	6	NaN	1	5	0.0371220176202853	0	1	NaN	409	7	31	1	120	220	320	NaN	520	0.355219434481114	2	0	NaN	3108594.8998797	NaN	3108595.8832811	3108596.39983377
7	20	1	0	90	36.1581920903955	36.241610738255	20	0.666761679947376	2	5	6	NaN	1	4	0.0371220176202853	0	1	NaN	410	7	32	1	120	220	320	NaN	520	0.280598083045334	1	1	NaN	3108597.5666847	NaN	3108598.5502299	3108599.06676232
7	20	1	0	90	36.1581920903955	36.241610738255	25	0.83345209993422	2	12	6	NaN	2	5	0.0371220176202853	0	1	NaN	411	7	33	1	120	220	320	NaN	520	0.952806143090129	2	1	NaN	3108600.1503953	NaN	3108601.1338011	3108601.65034526
7	20	1	0	90	36.1581920903955	36.241610738255	20	0.666761679947376	2	4	1	NaN	1	5	0.0371220176202853	0	1	NaN	412	7	34	1	120	220	320	NaN	520	0.301885734312236	1	1	NaN	3108603.417387	NaN	3108604.4007867	3108604.91734137
7	20	1	0	90	36.1581920903955	36.241610738255	15	0.500071259960532	2	3	1	NaN	1	5	0.0371220176202853	0	1	NaN	413	7	35	1	120	220	320	NaN	520	0.125019946135581	1	1	NaN	3108606.0343034	NaN	3108607.0177538	3108607.53426835
7	20	1	0	90	36.1581920903955	36.241610738255	21	0.700099763944745	2	5	1	NaN	1	5	0.0371220176202853	0	1	NaN	414	7	36	1	120	220	320	NaN	520	0.30731493467465	2	0	NaN	3108608.4677667	NaN	3108609.4512833	3108609.96783297
7	20	1	0	90	36.1581920903955	36.241610738255	24	0.800114015936851	2	8	3	NaN	2	4	0.0371220176202853	0	1	NaN	415	7	37	1	120	220	320	NaN	520	0.226538134738803	2	1	NaN	3108611.0848147	NaN	3108612.0682048	3108612.58475947
7	20	1	0	90	36.1581920903955	36.241610738255	25	0.83345209993422	2	5	5	NaN	1	5	0.0371220176202853	0	1	NaN	416	7	38	1	120	220	320	NaN	520	0.244828083086759	1	1	NaN	3108613.6182555	NaN	3108614.6017858	3108615.11833572
7	20	1	0	90	36.1581920903955	36.241610738255	15	0.500071259960532	2	1	1	NaN	1	4	0.0371220176202853	0	1	NaN	417	7	39	1	120	220	320	NaN	520	0.293983034789562	1	1	NaN	3108616.1853136	NaN	3108617.1686715	3108617.68525947
7	20	1	0	90	36.1581920903955	36.241610738255	12	0.400057007968426	2	4	2	NaN	1	4	0.0371220176202853	0	1	NaN	418	7	40	1	120	220	320	NaN	520	0.045144131872803	1	1	NaN	3108618.8023551	NaN	3108619.7856366	3108620.30217327
7	20	1	0	90	36.1581920903955	36.241610738255	21	0.700099763944745	2	7	4	NaN	2	4	0.0371220176202853	0	1	NaN	419	7	41	1	120	220	320	NaN	520	0.254534534644336	2	1	NaN	3108621.1523368	NaN	3108622.1357528	3108622.65241447
7	20	1	0	90	36.1581920903955	36.241610738255	10	0.333380839973688	2	7	5	NaN	2	4	0.0371220176202853	0	1	NaN	420	7	42	1	120	220	320	NaN	520	0.247623682953417	1	0	NaN	3108623.7192876	NaN	3108624.7027567	3108625.21932342
7	20	1	0	90	36.1581920903955	36.241610738255	25	0.83345209993422	2	12	6	NaN	2	3	0.0371220176202853	0	1	NaN	421	7	43	1	120	220	320	NaN	520	0.0176166347227991	2	1	NaN	3108626.2695075	NaN	3108627.2529298	3108627.76957627
7	20	1	0	90	36.1581920903955	36.241610738255	22	0.733437847942114	2	3	6	NaN	1	4	0.0371220176202853	0	1	NaN	422	7	44	1	120	220	320	NaN	520	0.251952634658664	2	0	NaN	3108628.6032191	NaN	3108629.5865871	3108630.10315077
7	20	1	0	90	36.1581920903955	36.241610738255	7	0.233366587981582	2	3	3	NaN	1	3	0.0371220176202853	0	1	NaN	423	7	45	1	120	220	320	NaN	520	0.205112634692341	1	1	NaN	3108631.1701185	NaN	3108632.1535215	3108632.67005997
7	20	1	0	90	36.1581920903955	36.241610738255	6	0.200028503984213	2	6	5	NaN	1	5	0.0371220176202853	0	1	NaN	424	7	46	1	120	220	320	NaN	520	0.232414782978594	1	1	NaN	3108633.687034	NaN	3108634.6704247	3108635.18698192
7	20	1	0	90	36.1581920903955	36.241610738255	0	0	1	8	5	NaN	2	3	0.0371220176202853	0	1	NaN	425	7	47	1	110	210	310	NaN	510	0.306025731842965	2	1	NaN	3108636.2372819	NaN	3108637.2207008	3108637.73722037
7	20	1	0	90	36.1581920903955	36.241610738255	8	0.26670467197895	2	10	5	NaN	2	3	0.0371220176202853	0	1	NaN	426	7	48	1	120	220	320	NaN	520	0.185015482828021	1	0	NaN	3108638.8541923	NaN	3108639.8376006	3108640.35415262
7	20	1	0	90	36.1581920903955	36.241610738255	13	0.433395091965795	2	4	5	NaN	1	5	0.0371220176202853	0	1	NaN	427	7	49	1	120	220	320	NaN	520	1.172662534751	1	1	NaN	3108641.3544526	NaN	3108642.3378306	3108642.85440287
7	20	1	0	90	36.1581920903955	36.241610738255	11	0.366718923971057	2	10	3	NaN	2	3	0.0371220176202853	0	1	NaN	428	7	50	1	120	220	320	NaN	520	0.0251615317538381	2	1	NaN	3108644.8381331	NaN	3108645.821526	3108646.33807737
7	20	1	0	90	36.1581920903955	36.241610738255	20	0.666761679947376	2	8	5	NaN	2	4	0.0371220176202853	0	1	NaN	429	7	51	1	120	220	320	NaN	520	0.251696734689176	2	1	NaN	3108647.1716761	NaN	3108648.155089	3108648.67163507
7	20	1	0	90	36.1581920903955	36.241610738255	8	0.26670467197895	2	12	4	NaN	2	5	0.0371220176202853	0	1	NaN	430	7	52	1	120	220	320	NaN	520	6.87666123500094	1	0	NaN	3108649.7385965	NaN	3108650.7220084	3108651.23856237
7	20	1	0	90	36.1581920903955	36.241610738255	17	0.56674742795527	2	5	3	NaN	1	4	0.0371220176202853	0	1	NaN	431	7	53	1	120	220	320	NaN	520	0.236775937490165	1	1	NaN	3108658.9227067	NaN	3108659.9062467	3108660.42279296
7	20	1	0	90	36.1581920903955	36.241610738255	22	0.733437847942114	2	1	3	NaN	1	4	0.0371220176202853	0	1	NaN	432	7	54	1	120	220	320	NaN	520	0.118420382961631	2	0	NaN	3108661.4730685	NaN	3108662.4564914	3108662.97304252
7	20	1	0	90	36.1581920903955	36.241610738255	12	0.400057007968426	2	12	5	NaN	2	3	0.0371220176202853	0	1	NaN	433	7	55	1	120	220	320	NaN	520	0.348733582999557	2	1	NaN	3108663.9066704	NaN	3108664.8900683	3108665.40661032
7	20	1	0	90	36.1581920903955	36.241610738255	21	0.700099763944745	2	6	3	NaN	1	5	0.0371220176202853	0	1	NaN	434	7	56	1	120	220	320	NaN	520	1.07360633183271	1	1	NaN	3108666.5736055	NaN	3108667.5569903	3108668.07353807
7	20	1	0	90	36.1581920903955	36.241610738255	21	0.700099763944745	2	4	6	NaN	1	3	0.0371220176202853	0	1	NaN	435	7	57	1	120	220	320	NaN	520	0.217561734840274	1	1	NaN	3108669.9739275	NaN	3108670.9573219	3108671.47387407
7	20	1	0	90	36.1581920903955	36.241610738255	8	0.26670467197895	2	1	2	NaN	1	4	0.0371220176202853	0	1	NaN	436	7	58	1	120	220	320	NaN	520	0.595754634588957	1	1	NaN	3108672.5073952	NaN	3108673.4909095	3108674.00746247
7	20	1	0	90	36.1581920903955	36.241610738255	15	0.500071259960532	2	5	2	NaN	1	5	0.0371220176202853	0	1	NaN	437	7	59	1	120	220	320	NaN	520	0.239193886052817	1	1	NaN	3108675.4244741	NaN	3108676.4078628	3108676.92441391
7	20	1	0	90	36.1581920903955	36.241610738255	12	0.400057007968426	2	2	2	NaN	1	3	0.0371220176202853	0	1	NaN	438	7	60	1	120	220	320	NaN	520	0.232682280242443	1	1	NaN	3108677.9747239	NaN	3108678.9581216	3108679.47465742
7	20	1	0	90	36.1581920903955	36.241610738255	18	0.600085511952639	2	9	2	NaN	2	4	0.0371220176202853	0	1	NaN	439	7	61	1	120	220	320	NaN	520	0.210900434758514	2	1	NaN	3108680.5249731	NaN	3108681.5083669	3108682.02491317
7	20	1	0	90	36.1581920903955	36.241610738255	18	0.600085511952639	2	2	4	NaN	1	4	0.0371220176202853	0	1	NaN	440	7	62	1	120	220	320	NaN	520	0.381406532134861	1	1	NaN	3108683.0418789	NaN	3108684.025287	3108684.54182897
7	20	1	0	90	36.1581920903955	36.241610738255	21	0.700099763944745	2	5	1	NaN	1	4	0.0371220176202853	0	1	NaN	441	7	63	1	120	220	320	NaN	520	0.193263534922153	1	1	NaN	3108685.7421358	NaN	3108686.7255243	3108687.24209387
7	20	1	0	90	36.1581920903955	36.241610738255	13	0.433395091965795	2	2	5	NaN	1	4	0.0371220176202853	0	1	NaN	442	8	1	1	120	220	320	NaN	520	0.275448234751821	1	1	NaN	3108716.6118406	NaN	3108717.5952326	3108718.11179807
7	20	1	0	90	36.1581920903955	36.241610738255	13	0.433395091965795	2	11	5	NaN	2	3	0.0371220176202853	0	1	NaN	443	8	2	1	120	220	320	NaN	520	0.267986482940614	2	1	NaN	3108719.1955314	NaN	3108720.1788425	3108720.69538492
7	20	1	0	90	36.1581920903955	36.241610738255	23	0.766775931939483	2	4	5	NaN	1	4	0.0371220176202853	0	1	NaN	444	8	3	1	120	220	320	NaN	520	0.378985932096839	1	1	NaN	3108722.0123557	NaN	3108722.9957588	3108723.51232397
7	20	1	0	90	36.1581920903955	36.241610738255	22	0.733437847942114	2	11	4	NaN	2	5	0.0371220176202853	0	1	NaN	445	8	4	1	120	220	320	NaN	520	0.294753382913768	2	1	NaN	3108724.7126363	NaN	3108725.6960369	3108726.21259612
7	20	1	0	90	36.1581920903955	36.241610738255	14	0.466733175963163	2	1	1	NaN	1	4	0.0371220176202853	0	1	NaN	446	8	5	1	120	220	320	NaN	520	0.269900334533304	1	1	NaN	3108727.3295523	NaN	3108728.3130153	3108728.82952277
7	20	1	0	90	36.1581920903955	36.241610738255	24	0.800114015936851	2	1	6	NaN	1	3	0.0371220176202853	0	1	NaN	447	8	6	1	120	220	320	NaN	520	0.510576982982457	2	0	NaN	3108729.9131624	NaN	3108730.8964677	3108731.41310772
7	20	1	0	90	36.1581920903955	36.241610738255	8	0.26670467197895	2	7	5	NaN	2	4	0.0371220176202853	0	1	NaN	448	8	7	1	120	220	320	NaN	520	0.333152034785599	1	0	NaN	3108732.7301047	NaN	3108733.7135084	3108734.23005067
7	20	1	0	90	36.1581920903955	36.241610738255	25	0.83345209993422	2	1	5	NaN	1	5	0.0371220176202853	0	1	NaN	449	8	8	1	120	220	320	NaN	520	0.339427134953439	2	0	NaN	3108735.380253	NaN	3108736.3637623	3108736.88031917
7	20	1	0	90	36.1581920903955	36.241610738255	17	0.56674742795527	2	4	3	NaN	1	5	0.0371220176202853	0	1	NaN	450	8	9	1	120	220	320	NaN	520	0.22466053487733	1	1	NaN	3108738.030627	NaN	3108739.0140422	3108739.53057997
7	20	1	0	90	36.1581920903955	36.241610738255	6	0.200028503984213	2	7	2	NaN	2	5	0.0371220176202853	0	1	NaN	451	8	10	1	120	220	320	NaN	520	0.267616582568735	1	0	NaN	3108740.5640837	NaN	3108741.5476543	3108742.06414802
7	20	1	0	90	36.1581920903955	36.241610738255	24	0.800114015936851	2	6	5	NaN	1	5	0.0371220176202853	0	1	NaN	452	8	11	1	120	220	320	NaN	520	0.339808731805533	2	0	NaN	3108743.1477908	NaN	3108744.1311762	3108744.64773627
7	20	1	0	90	36.1581920903955	36.241610738255	12	0.400057007968426	2	5	5	NaN	1	5	0.0371220176202853	0	1	NaN	453	8	12	1	120	220	320	NaN	520	0.257691480685025	1	1	NaN	3108745.7981472	NaN	3108746.7814525	3108747.29800822
7	20	1	0	90	36.1581920903955	36.241610738255	9	0.300042755976319	2	3	3	NaN	1	5	0.0371220176202853	0	1	NaN	454	8	13	1	120	220	320	NaN	520	0.21885433467105	1	1	NaN	3108748.3649897	NaN	3108749.3483802	3108749.86492047
7	20	1	0	90	36.1581920903955	36.241610738255	18	0.600085511952639	2	11	4	NaN	2	5	0.0371220176202853	0	1	NaN	455	8	14	1	120	220	320	NaN	520	1.2050185459666	2	1	NaN	3108750.898562	NaN	3108751.8819616	3108752.39850985
7	20	1	0	90	36.1581920903955	36.241610738255	21	0.700099763944745	2	8	4	NaN	2	5	0.0371220176202853	0	1	NaN	456	8	15	1	120	220	320	NaN	520	0.248268434777856	1	0	NaN	3108754.4156471	NaN	3108755.3988665	3108755.91551517
7	20	1	0	90	36.1581920903955	36.241610738255	12	0.400057007968426	2	11	2	NaN	2	4	0.0371220176202853	0	1	NaN	457	8	16	1	120	220	320	NaN	520	0.352862383238971	2	1	NaN	3108756.9825036	NaN	3108757.9658769	3108758.48242862
7	20	1	0	90	36.1581920903955	36.241610738255	15	0.500071259960532	2	10	2	NaN	2	5	0.0371220176202853	0	1	NaN	458	8	17	1	120	220	320	NaN	520	0.246317034587264	1	0	NaN	3108759.6493015	NaN	3108760.6328277	3108761.14936637
7	20	1	0	90	36.1581920903955	36.241610738255	12	0.400057007968426	2	7	3	NaN	2	5	0.0371220176202853	0	1	NaN	459	8	18	1	120	220	320	NaN	520	0.247764134779572	2	1	NaN	3108762.1996535	NaN	3108763.1830645	3108763.69960957
7	20	1	0	90	36.1581920903955	36.241610738255	9	0.300042755976319	2	2	6	NaN	1	5	0.0371220176202853	0	1	NaN	460	8	19	1	120	220	320	NaN	520	0.408858043141663	2	0	NaN	3108764.7665808	NaN	3108765.7499922	3108766.26654326
