subjno	age	gender	isPractice	viewdist	CmToPixX	CmToPixY	SOA_frm	SOA_time	targNum	targID	targExample	targRace	targGender	firstTargPos	contrast	familiarity	curr_staircase	iStair	TrialNum	BlockNum	blktrl	sessionNum	TC_FIXATION	TC_RSVP_START	TC_RSVP_END	TC_BLANK	TC_RESPONSE_ONSET	RT2afc	resp_2afc	acc	RSVPOnsetVBL	RSVPOnsetTime	RSVPOffsetVBL	RSVPOffsetTime	startrt_2afc
78	23	0	0	90	36.1581920903955	36.241610738255	12	0.40002484805882	2	3	1	NaN	1	4	0.0189654617291481	0	1	NaN	1	1	1	2	120	220	320	NaN	520	0.63988857390359	1	1	NaN	3974848.3496894	NaN	3974849.3329958	3974849.86610983
78	23	0	0	90	36.1581920903955	36.241610738255	20	0.666708080098033	2	9	3	NaN	2	4	0.0189654617291481	0	1	NaN	2	1	2	2	120	220	320	NaN	520	0.247615873813629	1	0	NaN	3974851.3499914	NaN	3974852.3332895	3974852.86639783
78	23	0	0	90	36.1581920903955	36.241610738255	24	0.80004969611764	2	12	6	NaN	2	4	0.0189654617291481	0	1	NaN	3	1	3	2	120	220	320	NaN	520	0.264825294725597	2	1	NaN	3974853.9332558	NaN	3974854.9167931	3974855.43332821
78	23	0	0	90	36.1581920903955	36.241610738255	22	0.733378888107836	2	5	6	NaN	1	3	0.0189654617291481	0	1	NaN	4	1	4	2	120	220	320	NaN	520	0.248314415570349	1	1	NaN	3974856.5336262	NaN	3974857.51702	3974858.03357408
78	23	0	0	90	36.1581920903955	36.241610738255	13	0.433360252063721	2	10	4	NaN	2	5	0.0189654617291481	0	1	NaN	5	1	5	2	120	220	320	NaN	520	0.337565620895475	2	1	NaN	3974859.1005453	NaN	3974860.0839535	3974860.60051338
78	23	0	0	90	36.1581920903955	36.241610738255	20	0.666708080098033	2	9	3	NaN	2	5	0.0189654617291481	0	1	NaN	6	1	6	2	120	220	320	NaN	520	0.286330367904156	1	0	NaN	3974861.7674693	NaN	3974862.7508646	3974863.26742643
78	23	0	0	90	36.1581920903955	36.241610738255	14	0.466695656068623	2	3	4	NaN	1	5	0.0189654617291481	0	1	NaN	7	1	7	2	120	220	320	NaN	520	0.318273520562798	2	0	NaN	3974864.3677724	NaN	3974865.3511387	3974865.86767328
78	23	0	0	90	36.1581920903955	36.241610738255	14	0.466695656068623	2	2	2	NaN	1	4	0.0189654617291481	0	1	NaN	8	1	8	2	120	220	320	NaN	520	0.332595868036151	1	1	NaN	3974867.0013088	NaN	3974867.9847248	3974868.50127143
78	23	0	0	90	36.1581920903955	36.241610738255	13	0.433360252063721	2	5	5	NaN	1	3	0.0189654617291481	0	1	NaN	9	1	9	2	120	220	320	NaN	520	0.834339567925781	1	1	NaN	3974869.6514448	NaN	3974870.6349839	3974871.15152043
78	23	0	0	90	36.1581920903955	36.241610738255	16	0.533366464078426	2	8	5	NaN	2	4	0.0189654617291481	0	1	NaN	10	1	10	2	120	220	320	NaN	520	0.275840368121862	1	0	NaN	3974872.8018899	NaN	3974873.7852851	3974874.30183573
78	23	0	0	90	36.1581920903955	36.241610738255	22	0.733378888107836	2	10	2	NaN	2	4	0.0189654617291481	0	1	NaN	11	1	11	2	120	220	320	NaN	520	0.307976168114692	1	0	NaN	3974875.4021662	NaN	3974876.3855473	3974876.90208593
78	23	0	0	90	36.1581920903955	36.241610738255	8	0.266683232039213	2	7	2	NaN	2	5	0.0189654617291481	0	1	NaN	12	1	12	2	120	220	320	NaN	520	0.0104120681062341	2	1	NaN	3974878.0357463	NaN	3974879.019126	3974879.53568943
78	23	0	0	90	36.1581920903955	36.241610738255	10	0.333354040049016	2	10	4	NaN	2	5	0.0189654617291481	0	1	NaN	13	1	13	2	120	220	320	NaN	520	0.532900467980653	2	1	NaN	3974880.3693181	NaN	3974881.3527308	3974881.86924243
78	23	0	0	90	36.1581920903955	36.241610738255	25	0.833385100122541	2	8	4	NaN	2	3	0.0189654617291481	0	1	NaN	14	1	14	2	120	220	320	NaN	520	0.457695141900331	2	1	NaN	3974883.2362538	NaN	3974884.2197254	3974884.73620166
78	23	0	0	90	36.1581920903955	36.241610738255	16	0.533366464078426	2	12	2	NaN	2	5	0.0189654617291481	0	1	NaN	15	1	15	2	120	220	320	NaN	520	0.298183967825025	2	1	NaN	3974886.0198747	NaN	3974887.0032578	3974887.51979333
78	23	0	0	90	36.1581920903955	36.241610738255	13	0.433360252063721	2	9	5	NaN	2	5	0.0189654617291481	0	1	NaN	16	1	16	2	120	220	320	NaN	520	0.321460020728409	2	1	NaN	3974888.636672	NaN	3974889.620176	3974890.13672708
78	23	0	0	90	36.1581920903955	36.241610738255	21	0.700043484102935	2	4	4	NaN	1	3	0.0189654617291481	0	1	NaN	17	1	17	2	120	220	320	NaN	520	1.36737452074885	2	0	NaN	3974891.2703733	NaN	3974892.2537915	3974892.77032348
78	23	0	0	90	36.1581920903955	36.241610738255	0	0	1	3	5	NaN	1	4	0.0189654617291481	0	1	NaN	18	1	18	2	110	210	310	NaN	510	0.267904668115079	2	0	NaN	3974894.9540686	NaN	3974895.9374637	3974896.45400523
78	23	0	0	90	36.1581920903955	36.241610738255	22	0.733378888107836	2	9	6	NaN	2	3	0.0189654617291481	0	1	NaN	19	1	19	2	120	220	320	NaN	520	0.300220978911966	2	1	NaN	3974897.5376385	NaN	3974898.5210458	3974899.03760402
78	23	0	0	90	36.1581920903955	36.241610738255	22	0.733378888107836	2	3	3	NaN	1	5	0.0189654617291481	0	1	NaN	20	1	20	2	120	220	320	NaN	520	0.283293367829174	2	0	NaN	3974900.1545725	NaN	3974901.137966	3974901.65451693
78	23	0	0	90	36.1581920903955	36.241610738255	10	0.333354040049016	2	6	2	NaN	1	3	0.0189654617291481	0	1	NaN	21	1	21	2	120	220	320	NaN	520	0.331157420296222	1	1	NaN	3974902.7548352	NaN	3974903.7382274	3974904.25478268
78	23	0	0	90	36.1581920903955	36.241610738255	12	0.40002484805882	2	7	2	NaN	2	3	0.0189654617291481	0	1	NaN	22	1	22	2	120	220	320	NaN	520	0.289097315631807	1	0	NaN	3974905.4050851	NaN	3974906.3884719	3974906.90503408
78	23	0	0	90	36.1581920903955	36.241610738255	14	0.466695656068623	2	8	4	NaN	2	3	0.0189654617291481	0	1	NaN	23	1	23	2	120	220	320	NaN	520	0.248003520537168	1	0	NaN	3974908.0220442	NaN	3974909.0054197	3974909.52196608
78	23	0	0	90	36.1581920903955	36.241610738255	19	0.633372676093131	2	5	6	NaN	1	4	0.0189654617291481	0	1	NaN	24	1	24	2	120	220	320	NaN	520	0.345115115400404	2	0	NaN	3974910.5889248	NaN	3974911.5723233	3974912.08887128
78	23	0	0	90	36.1581920903955	36.241610738255	24	0.80004969611764	2	3	5	NaN	1	5	0.0189654617291481	0	1	NaN	25	1	25	2	120	220	320	NaN	520	0.309991068206728	2	0	NaN	3974913.2558656	NaN	3974914.2392613	3974914.75580063
78	23	0	0	90	36.1581920903955	36.241610738255	23	0.766714292112738	2	9	2	NaN	2	5	0.0189654617291481	0	1	NaN	26	1	26	2	120	220	320	NaN	520	0.276812568306923	1	0	NaN	3974915.8894553	NaN	3974916.8728565	3974917.38939603
78	23	0	0	90	36.1581920903955	36.241610738255	12	0.40002484805882	2	5	4	NaN	1	3	0.0189654617291481	0	1	NaN	27	1	27	2	120	220	320	NaN	520	0.364507089368999	2	0	NaN	3974918.4897175	NaN	3974919.4731154	3974919.98965521
78	23	0	0	90	36.1581920903955	36.241610738255	11	0.366689444053918	2	6	5	NaN	1	3	0.0189654617291481	0	1	NaN	28	1	28	2	120	220	320	NaN	520	0.264735368080437	1	1	NaN	3974921.1732975	NaN	3974922.1566976	3974922.67325373
78	23	0	0	90	36.1581920903955	36.241610738255	25	0.833385100122541	2	6	1	NaN	1	3	0.0189654617291481	0	1	NaN	29	1	29	2	120	220	320	NaN	520	0.272928720805794	2	0	NaN	3974923.7568665	NaN	3974924.7403562	3974925.25684498
78	23	0	0	90	36.1581920903955	36.241610738255	21	0.700043484102935	2	7	3	NaN	2	4	0.0189654617291481	0	1	NaN	30	1	30	2	120	220	320	NaN	520	0.361204215791076	2	1	NaN	3974926.3404769	NaN	3974927.3238764	3974927.84041908
78	23	0	0	90	36.1581920903955	36.241610738255	9	0.300018636044115	2	9	3	NaN	2	3	0.0189654617291481	0	1	NaN	31	1	31	2	120	220	320	NaN	520	0.0103924204595387	1	0	NaN	3974929.0240823	NaN	3974930.0074498	3974930.52403038
78	23	0	0	90	36.1581920903955	36.241610738255	14	0.466695656068623	2	3	3	NaN	1	4	0.0189654617291481	0	1	NaN	32	1	32	2	120	220	320	NaN	520	0.418376315850765	1	1	NaN	3974932.107691	NaN	3974933.0911043	3974933.60765838
78	23	0	0	90	36.1581920903955	36.241610738255	19	0.633372676093131	2	6	3	NaN	1	3	0.0189654617291481	0	1	NaN	33	1	33	2	120	220	320	NaN	520	0.268949668388814	1	1	NaN	3974934.84135	NaN	3974935.8247253	3974936.34125443
78	23	0	0	90	36.1581920903955	36.241610738255	21	0.700043484102935	2	9	1	NaN	2	5	0.0189654617291481	0	1	NaN	34	1	34	2	120	220	320	NaN	520	0.367220268119127	1	0	NaN	3974938.1749468	NaN	3974939.1583763	3974939.67492193
78	23	0	0	90	36.1581920903955	36.241610738255	19	0.633372676093131	2	2	1	NaN	1	5	0.0189654617291481	0	1	NaN	35	1	35	2	120	220	320	NaN	520	0.291667720768601	2	0	NaN	3974940.8584259	NaN	3974941.8419724	3974942.35852088
78	23	0	0	90	36.1581920903955	36.241610738255	10	0.333354040049016	2	7	3	NaN	2	4	0.0189654617291481	0	1	NaN	36	1	36	2	120	220	320	NaN	520	0.298645267728716	2	1	NaN	3974943.4754876	NaN	3974944.4588933	3974944.97544223
78	23	0	0	90	36.1581920903955	36.241610738255	22	0.733378888107836	2	1	2	NaN	1	3	0.0189654617291481	0	1	NaN	37	1	37	2	120	220	320	NaN	520	0.353554620407522	2	0	NaN	3974946.0925894	NaN	3974947.0758237	3974947.59237208
78	23	0	0	90	36.1581920903955	36.241610738255	14	0.466695656068623	2	5	1	NaN	1	3	0.0189654617291481	0	1	NaN	38	1	38	2	120	220	320	NaN	520	0.0770300677977502	1	1	NaN	3974951.1929101	NaN	3974952.1763109	3974952.69287123
78	23	0	0	90	36.1581920903955	36.241610738255	21	0.700043484102935	2	8	3	NaN	2	3	0.0189654617291481	0	1	NaN	39	1	39	2	120	220	320	NaN	520	0.305074668489397	1	0	NaN	3974953.8931497	NaN	3974954.8765972	3974955.39312433
78	23	0	0	90	36.1581920903955	36.241610738255	8	0.266683232039213	2	11	3	NaN	2	5	0.0189654617291481	0	1	NaN	40	1	40	2	120	220	320	NaN	520	0.0799466683529317	1	0	NaN	3974956.5101058	NaN	3974957.4935108	3974958.01004913
78	23	0	0	90	36.1581920903955	36.241610738255	15	0.500031060073525	2	12	5	NaN	2	3	0.0189654617291481	0	1	NaN	41	1	41	2	120	220	320	NaN	520	0.264627368189394	1	0	NaN	3974958.8937071	NaN	3974959.8770686	3974960.39361413
78	23	0	0	90	36.1581920903955	36.241610738255	21	0.700043484102935	2	9	1	NaN	2	5	0.0189654617291481	0	1	NaN	42	1	42	2	120	220	320	NaN	520	0.345041868276894	2	1	NaN	3974961.4771219	NaN	3974962.4606555	3974962.97721313
78	23	0	0	90	36.1581920903955	36.241610738255	11	0.366689444053918	2	5	6	NaN	1	4	0.0189654617291481	0	1	NaN	43	1	43	2	120	220	320	NaN	520	0.26974342064932	1	1	NaN	3974964.1441545	NaN	3974965.1275785	3974965.64413318
78	23	0	0	90	36.1581920903955	36.241610738255	12	0.40002484805882	2	6	2	NaN	1	3	0.0189654617291481	0	1	NaN	44	1	44	2	120	220	320	NaN	520	0.238487515132874	1	1	NaN	3974966.7277821	NaN	3974967.7111608	3974968.22772058
78	23	0	0	90	36.1581920903955	36.241610738255	23	0.766714292112738	2	5	6	NaN	1	5	0.0189654617291481	0	1	NaN	45	1	45	2	120	220	320	NaN	520	0.400162720587105	2	0	NaN	3974969.2780383	NaN	3974970.261426	3974970.77798168
78	23	0	0	90	36.1581920903955	36.241610738255	13	0.433360252063721	2	6	1	NaN	1	5	0.0189654617291481	0	1	NaN	46	1	46	2	120	220	320	NaN	520	0.115192168392241	1	1	NaN	3974971.9949564	NaN	3974972.9783568	3974973.49491373
78	23	0	0	90	36.1581920903955	36.241610738255	20	0.666708080098033	2	1	1	NaN	1	3	0.0189654617291481	0	1	NaN	47	1	47	2	120	220	320	NaN	520	0.337278320454061	1	1	NaN	3974974.4285199	NaN	3974975.4119162	3974975.92848568
78	23	0	0	90	36.1581920903955	36.241610738255	11	0.366689444053918	2	10	4	NaN	2	5	0.0189654617291481	0	1	NaN	48	1	48	2	120	220	320	NaN	520	0.287321168463677	1	0	NaN	3974977.0787942	NaN	3974978.0621952	3974978.57874063
78	23	0	0	90	36.1581920903955	36.241610738255	18	0.60003727208823	2	12	1	NaN	2	5	0.0189654617291481	0	1	NaN	49	1	49	2	120	220	320	NaN	520	0.334805220831186	1	0	NaN	3974979.6788909	NaN	3974980.6624491	3974981.17900258
78	23	0	0	90	36.1581920903955	36.241610738255	8	0.266683232039213	2	12	3	NaN	2	5	0.0189654617291481	0	1	NaN	50	1	50	2	120	220	320	NaN	520	0.260627768468112	1	0	NaN	3974982.3293393	NaN	3974983.3126843	3974983.82925643
78	23	0	0	90	36.1581920903955	36.241610738255	8	0.266683232039213	2	10	5	NaN	2	5	0.0189654617291481	0	1	NaN	51	1	51	2	120	220	320	NaN	520	0.213988421019167	1	0	NaN	3974984.89623	NaN	3974985.8796008	3974986.39618078
78	23	0	0	90	36.1581920903955	36.241610738255	14	0.466695656068623	2	10	1	NaN	2	4	0.0189654617291481	0	1	NaN	52	1	52	2	120	220	320	NaN	520	1.34454536810517	2	1	NaN	3974987.4298236	NaN	3974988.413185	3974988.92975703
78	23	0	0	90	36.1581920903955	36.241610738255	14	0.466695656068623	2	12	6	NaN	2	4	0.0189654617291481	0	1	NaN	53	1	53	2	120	220	320	NaN	520	0.517916431650519	2	1	NaN	3974991.0801624	NaN	3974992.0636402	3974992.58011307
78	23	0	0	90	36.1581920903955	36.241610738255	9	0.300018636044115	2	6	5	NaN	1	3	0.0189654617291481	0	1	NaN	54	1	54	2	120	220	320	NaN	520	0.316011168528348	2	0	NaN	3974993.9137815	NaN	3974994.8971859	3974995.41372473
78	23	0	0	90	36.1581920903955	36.241610738255	7	0.233347828034312	2	5	3	NaN	1	3	0.0189654617291481	0	1	NaN	55	1	55	2	120	220	320	NaN	520	0.322961567901075	2	0	NaN	3974996.5472449	NaN	3974997.5307917	3974998.04731453
78	23	0	0	90	36.1581920903955	36.241610738255	18	0.60003727208823	2	11	4	NaN	2	4	0.0189654617291481	0	1	NaN	56	1	56	2	120	220	320	NaN	520	0.377075800206512	2	1	NaN	3974999.1809589	NaN	3975000.1643542	3975000.680905
78	23	0	0	90	36.1581920903955	36.241610738255	6	0.20001242402941	2	2	2	NaN	1	4	0.0189654617291481	0	1	NaN	57	1	57	2	120	220	320	NaN	520	0.301402267999947	1	1	NaN	3975001.8645767	NaN	3975002.8479552	3975003.36450023
78	23	0	0	90	36.1581920903955	36.241610738255	6	0.20001242402941	2	11	2	NaN	2	4	0.0189654617291481	0	1	NaN	58	1	58	2	120	220	320	NaN	520	0.602467968128622	1	0	NaN	3975006.3316593	NaN	3975007.3150554	3975007.83161243
78	23	0	0	90	36.1581920903955	36.241610738255	16	0.533366464078426	2	7	4	NaN	2	5	0.0189654617291481	0	1	NaN	59	1	59	2	120	220	320	NaN	520	0.357753768097609	1	0	NaN	3975009.2486333	NaN	3975010.2320268	3975010.74856323
78	23	0	0	90	36.1581920903955	36.241610738255	8	0.266683232039213	2	3	6	NaN	1	3	0.0189654617291481	0	1	NaN	60	1	60	2	120	220	320	NaN	520	0.29550846805796	2	0	NaN	3975012.1822231	NaN	3975013.1656228	3975013.68218953
78	23	0	0	90	36.1581920903955	36.241610738255	16	0.533366464078426	2	8	4	NaN	2	4	0.0189654617291481	0	1	NaN	61	1	61	2	120	220	320	NaN	520	0.438889968208969	1	0	NaN	3975014.7990607	NaN	3975015.7825762	3975016.29910293
78	23	0	0	90	36.1581920903955	36.241610738255	13	0.433360252063721	2	3	4	NaN	1	3	0.0189654617291481	0	1	NaN	62	1	62	2	120	220	320	NaN	520	0.699773068074137	2	0	NaN	3975017.8661202	NaN	3975018.8495091	3975019.36608443
78	23	0	0	90	36.1581920903955	36.241610738255	25	0.833385100122541	2	4	6	NaN	1	4	0.0189654617291481	0	1	NaN	63	1	63	2	120	220	320	NaN	520	0.290927199646831	1	1	NaN	3975020.8831096	NaN	3975021.8665261	3975022.3830306
78	23	0	0	90	36.1581920903955	36.241610738255	23	0.766714292112738	2	6	6	NaN	1	3	0.0189654617291481	0	1	NaN	64	2	1	2	120	220	320	NaN	520	0.34820766793564	1	1	NaN	3975057.1700136	NaN	3975058.1533745	3975058.66992993
78	23	0	0	90	36.1581920903955	36.241610738255	22	0.733378888107836	2	6	6	NaN	1	4	0.0189654617291481	0	1	NaN	65	2	2	2	120	220	320	NaN	520	0.16122627351433	1	1	NaN	3975059.836918	NaN	3975060.8203213	3975061.33686253
78	23	0	0	90	36.1581920903955	36.241610738255	14	0.466695656068623	2	1	6	NaN	1	5	0.0189654617291481	0	1	NaN	66	2	3	2	120	220	320	NaN	520	0.301290215458721	1	1	NaN	3975062.3204817	NaN	3975063.3039189	3975063.82044358
78	23	0	0	90	36.1581920903955	36.241610738255	21	0.700043484102935	2	10	4	NaN	2	4	0.0189654617291481	0	1	NaN	67	2	4	2	120	220	320	NaN	520	0.300772068090737	2	1	NaN	3975064.9372904	NaN	3975065.9208158	3975066.43736753
78	23	0	0	90	36.1581920903955	36.241610738255	13	0.433360252063721	2	11	1	NaN	2	3	0.0189654617291481	0	1	NaN	68	2	5	2	120	220	320	NaN	520	0.572058426681906	2	1	NaN	3975067.5543766	NaN	3975068.5377571	3975069.05428607
78	23	0	0	90	36.1581920903955	36.241610738255	25	0.833385100122541	2	11	2	NaN	2	3	0.0189654617291481	0	1	NaN	69	2	6	2	120	220	320	NaN	520	0.352216220460832	2	1	NaN	3975070.4380773	NaN	3975071.42135	3975071.93790408
78	23	0	0	90	36.1581920903955	36.241610738255	25	0.833385100122541	2	6	6	NaN	1	4	0.0189654617291481	0	1	NaN	70	2	7	2	120	220	320	NaN	520	0.453373268246651	2	0	NaN	3975073.1049021	NaN	3975074.0882965	3975074.60482653
78	23	0	0	90	36.1581920903955	36.241610738255	7	0.233347828034312	2	11	3	NaN	2	4	0.0189654617291481	0	1	NaN	71	2	8	2	120	220	320	NaN	520	0.34955086838454	2	1	NaN	3975075.8884897	NaN	3975076.8718896	3975077.38843933
78	23	0	0	90	36.1581920903955	36.241610738255	20	0.666708080098033	2	10	6	NaN	2	4	0.0189654617291481	0	1	NaN	72	2	9	2	120	220	320	NaN	520	0.227093568071723	2	1	NaN	3975078.5554365	NaN	3975079.5388366	3975080.05536423
78	23	0	0	90	36.1581920903955	36.241610738255	23	0.766714292112738	2	7	1	NaN	2	4	0.0189654617291481	0	1	NaN	73	2	10	2	120	220	320	NaN	520	0.540492220316082	1	0	NaN	3975081.1055408	NaN	3975082.0891117	3975082.60562268
78	23	0	0	90	36.1581920903955	36.241610738255	25	0.833385100122541	2	10	5	NaN	2	3	0.0189654617291481	0	1	NaN	74	2	11	2	120	220	320	NaN	520	0.265746868215501	1	0	NaN	3975083.9726244	NaN	3975084.9560207	3975085.47256253
78	23	0	0	90	36.1581920903955	36.241610738255	10	0.333354040049016	2	10	4	NaN	2	3	0.0189654617291481	0	1	NaN	75	2	12	2	120	220	320	NaN	520	0.0806681681424379	2	1	NaN	3975086.7895528	NaN	3975087.7729622	3975088.28950413
78	23	0	0	90	36.1581920903955	36.241610738255	12	0.40002484805882	2	6	3	NaN	1	4	0.0189654617291481	0	1	NaN	76	2	13	2	120	220	320	NaN	520	1.19281236315146	2	0	NaN	3975089.1731351	NaN	3975090.1565249	3975090.67307104
78	23	0	0	90	36.1581920903955	36.241610738255	9	0.300018636044115	2	10	5	NaN	2	3	0.0189654617291481	0	1	NaN	77	2	14	2	120	220	320	NaN	520	0.612629126291722	1	0	NaN	3975092.6735528	NaN	3975093.6568836	3975094.17342327
78	23	0	0	90	36.1581920903955	36.241610738255	16	0.533366464078426	2	6	4	NaN	1	5	0.0189654617291481	0	1	NaN	78	2	15	2	120	220	320	NaN	520	0.892354867886752	2	0	NaN	3975095.6734177	NaN	3975096.6571681	3975097.17371333
78	23	0	0	90	36.1581920903955	36.241610738255	10	0.333354040049016	2	9	3	NaN	2	4	0.0189654617291481	0	1	NaN	79	2	16	2	120	220	320	NaN	520	0.315360268112272	2	1	NaN	3975098.8907487	NaN	3975099.8741305	3975100.39070553
78	23	0	0	90	36.1581920903955	36.241610738255	14	0.466695656068623	2	8	3	NaN	2	3	0.0189654617291481	0	1	NaN	80	2	17	2	120	220	320	NaN	520	0.361748520750552	1	0	NaN	3975101.524344	NaN	3975102.5077386	3975103.02429778
78	23	0	0	90	36.1581920903955	36.241610738255	9	0.300018636044115	2	10	3	NaN	2	4	0.0189654617291481	0	1	NaN	81	2	18	2	120	220	320	NaN	520	0.344179168343544	1	0	NaN	3975105.9581142	NaN	3975106.9415066	3975107.45805683
78	23	0	0	90	36.1581920903955	36.241610738255	16	0.533366464078426	2	9	4	NaN	2	3	0.0189654617291481	0	1	NaN	82	2	19	2	120	220	320	NaN	520	1.01367626804858	1	0	NaN	3975108.6083839	NaN	3975109.5917688	3975110.10831363
78	23	0	0	90	36.1581920903955	36.241610738255	13	0.433360252063721	2	11	6	NaN	2	5	0.0189654617291481	0	1	NaN	83	2	20	2	120	220	320	NaN	520	0.296210015658289	1	0	NaN	3975111.94205	NaN	3975112.9254654	3975113.44197368
78	23	0	0	90	36.1581920903955	36.241610738255	10	0.333354040049016	2	2	1	NaN	1	4	0.0189654617291481	0	1	NaN	84	2	21	2	120	220	320	NaN	520	0.312119068112224	2	0	NaN	3975114.5421696	NaN	3975115.5256893	3975116.04222853
78	23	0	0	90	36.1581920903955	36.241610738255	16	0.533366464078426	2	10	3	NaN	2	4	0.0189654617291481	0	1	NaN	85	2	22	2	120	220	320	NaN	520	0.49435521569103	1	0	NaN	3975117.175932	NaN	3975118.1592656	3975118.67582098
78	23	0	0	90	36.1581920903955	36.241610738255	0	0	1	7	4	NaN	2	4	0.0189654617291481	0	1	NaN	86	2	23	2	110	210	310	NaN	510	0.253937668167055	2	1	NaN	3975119.9761668	NaN	3975120.9595396	3975121.47610023
78	23	0	0	90	36.1581920903955	36.241610738255	13	0.433360252063721	2	12	6	NaN	2	4	0.0189654617291481	0	1	NaN	87	2	24	2	120	220	320	NaN	520	0.324378399644047	2	1	NaN	3975123.4098763	NaN	3975124.3932233	3975124.9097661
78	23	0	0	90	36.1581920903955	36.241610738255	16	0.533366464078426	2	11	4	NaN	2	5	0.0189654617291481	0	1	NaN	88	2	25	2	120	220	320	NaN	520	0.0104218153283	2	1	NaN	3975126.0434274	NaN	3975127.026818	3975127.54336378
78	23	0	0	90	36.1581920903955	36.241610738255	25	0.833385100122541	2	7	5	NaN	2	3	0.0189654617291481	0	1	NaN	89	2	26	2	120	220	320	NaN	520	0.0104078678414226	1	0	NaN	3975128.3603153	NaN	3975129.3437182	3975129.86027313
78	23	0	0	90	36.1581920903955	36.241610738255	13	0.433360252063721	2	3	5	NaN	1	5	0.0189654617291481	0	1	NaN	90	2	27	2	120	220	320	NaN	520	2.66114136809483	2	0	NaN	3975131.1772734	NaN	3975132.1606425	3975132.67719653
78	23	0	0	90	36.1581920903955	36.241610738255	24	0.80004969611764	2	9	4	NaN	2	3	0.0189654617291481	0	1	NaN	91	2	28	2	120	220	320	NaN	520	0.0102923894301057	2	1	NaN	3975136.1612217	NaN	3975137.1444675	3975137.66103281
78	23	0	0	90	36.1581920903955	36.241610738255	22	0.733378888107836	2	11	1	NaN	2	5	0.0189654617291481	0	1	NaN	92	2	29	2	120	220	320	NaN	520	0.312407020945102	1	0	NaN	3975138.477893	NaN	3975139.4613474	3975139.97793478
78	23	0	0	90	36.1581920903955	36.241610738255	18	0.60003727208823	2	6	1	NaN	1	4	0.0189654617291481	0	1	NaN	93	2	30	2	120	220	320	NaN	520	0.438878721091896	1	1	NaN	3975141.11156	NaN	3975142.0949737	3975142.61151778
78	23	0	0	90	36.1581920903955	36.241610738255	8	0.266683232039213	2	5	2	NaN	1	4	0.0189654617291481	0	1	NaN	94	2	31	2	120	220	320	NaN	520	0.296468673739582	2	0	NaN	3975143.8618479	NaN	3975144.8452182	3975145.36178733
78	23	0	0	90	36.1581920903955	36.241610738255	20	0.666708080098033	2	3	4	NaN	1	4	0.0189654617291481	0	1	NaN	95	2	32	2	120	220	320	NaN	520	0.93573066778481	1	1	NaN	3975146.4787567	NaN	3975147.4621491	3975147.97870093
78	23	0	0	90	36.1581920903955	36.241610738255	23	0.766714292112738	2	12	5	NaN	2	5	0.0189654617291481	0	1	NaN	96	2	33	2	120	220	320	NaN	520	0.373021667823195	2	1	NaN	3975149.729103	NaN	3975150.7124897	3975151.22901633
78	23	0	0	90	36.1581920903955	36.241610738255	21	0.700043484102935	2	6	2	NaN	1	4	0.0189654617291481	0	1	NaN	97	2	34	2	120	220	320	NaN	520	0.369710120838135	1	1	NaN	3975152.4126369	NaN	3975153.3960522	3975153.91261528
78	23	0	0	90	36.1581920903955	36.241610738255	13	0.433360252063721	2	7	3	NaN	2	5	0.0189654617291481	0	1	NaN	98	2	35	2	120	220	320	NaN	520	0.533224768470973	2	1	NaN	3975155.7129656	NaN	3975156.6963955	3975157.21294003
78	23	0	0	90	36.1581920903955	36.241610738255	7	0.233347828034312	2	4	5	NaN	1	5	0.0189654617291481	0	1	NaN	99	2	36	2	120	220	320	NaN	520	0.818970115389675	2	0	NaN	3975158.5632771	NaN	3975159.5466646	3975160.06321568
78	23	0	0	90	36.1581920903955	36.241610738255	12	0.40002484805882	2	1	6	NaN	1	5	0.0189654617291481	0	1	NaN	100	2	37	2	120	220	320	NaN	520	0.293288089334965	1	1	NaN	3975161.6969384	NaN	3975162.6803393	3975163.19686651
78	23	0	0	90	36.1581920903955	36.241610738255	24	0.80004969611764	2	9	4	NaN	2	4	0.0189654617291481	0	1	NaN	101	2	38	2	120	220	320	NaN	520	0.300362967886031	2	1	NaN	3975164.3138781	NaN	3975165.297239	3975165.81378663
78	23	0	0	90	36.1581920903955	36.241610738255	11	0.366689444053918	2	5	2	NaN	1	5	0.0189654617291481	0	1	NaN	102	2	39	2	120	220	320	NaN	520	0.259458689950407	1	1	NaN	3975166.9307532	NaN	3975167.9141594	3975168.43071641
78	23	0	0	90	36.1581920903955	36.241610738255	12	0.40002484805882	2	3	6	NaN	1	4	0.0189654617291481	0	1	NaN	103	2	40	2	120	220	320	NaN	520	0.340836968272924	1	1	NaN	3975169.4976793	NaN	3975170.4810843	3975170.99763483
78	23	0	0	90	36.1581920903955	36.241610738255	19	0.633372676093131	2	9	3	NaN	2	4	0.0189654617291481	0	1	NaN	104	2	41	2	120	220	320	NaN	520	0.21059709507972	1	0	NaN	3975172.1478141	NaN	3975173.1313463	3975173.64789741
78	23	0	0	90	36.1581920903955	36.241610738255	18	0.60003727208823	2	1	2	NaN	1	5	0.0189654617291481	0	1	NaN	105	2	42	2	120	220	320	NaN	520	0.124751615338027	2	0	NaN	3975174.6816145	NaN	3975175.6649232	3975176.18146888
78	23	0	0	90	36.1581920903955	36.241610738255	10	0.333354040049016	2	5	1	NaN	1	4	0.0189654617291481	0	1	NaN	106	2	43	2	120	220	320	NaN	520	0.731275074183941	2	0	NaN	3975177.1151105	NaN	3975178.0985112	3975178.61504983
78	23	0	0	90	36.1581920903955	36.241610738255	22	0.733378888107836	2	12	6	NaN	2	5	0.0189654617291481	0	1	NaN	107	2	44	2	120	220	320	NaN	520	0.141709020826966	2	1	NaN	3975180.8487983	NaN	3975181.8321909	3975182.34875138
78	23	0	0	90	36.1581920903955	36.241610738255	7	0.233347828034312	2	1	3	NaN	1	3	0.0189654617291481	0	1	NaN	108	2	45	2	120	220	320	NaN	520	0.403101020492613	2	0	NaN	3975183.299049	NaN	3975184.2824513	3975184.79899258
78	23	0	0	90	36.1581920903955	36.241610738255	17	0.566701868083328	2	10	5	NaN	2	4	0.0189654617291481	0	1	NaN	109	2	46	2	120	220	320	NaN	520	0.246254115365446	1	0	NaN	3975186.0159607	NaN	3975186.9993739	3975187.51591688
78	23	0	0	90	36.1581920903955	36.241610738255	24	0.80004969611764	2	1	3	NaN	1	4	0.0189654617291481	0	1	NaN	110	2	47	2	120	220	320	NaN	520	0.517361568287015	1	1	NaN	3975189.4328564	NaN	3975190.4163717	3975190.93291373
78	23	0	0	90	36.1581920903955	36.241610738255	15	0.500031060073525	2	10	4	NaN	2	5	0.0189654617291481	0	1	NaN	111	2	48	2	120	220	320	NaN	520	1.48352001514286	2	1	NaN	3975192.2665787	NaN	3975193.2499863	3975193.76652708
78	23	0	0	90	36.1581920903955	36.241610738255	21	0.700043484102935	2	12	4	NaN	2	4	0.0189654617291481	0	1	NaN	112	2	49	2	120	220	320	NaN	520	0.603382115252316	1	0	NaN	3975196.0669423	NaN	3975197.0502634	3975197.56690308
78	23	0	0	90	36.1581920903955	36.241610738255	8	0.266683232039213	2	8	1	NaN	2	3	0.0189654617291481	0	1	NaN	113	2	50	2	120	220	320	NaN	520	0.198543589562178	1	0	NaN	3975198.9839057	NaN	3975199.967308	3975200.48385861
78	23	0	0	90	36.1581920903955	36.241610738255	0	0	1	6	3	NaN	1	4	0.0189654617291481	0	1	NaN	114	2	51	2	110	210	310	NaN	510	0.31349996291101	2	0	NaN	3975201.5008434	NaN	3975202.4842216	3975203.00077324
78	23	0	0	90	36.1581920903955	36.241610738255	18	0.60003727208823	2	2	3	NaN	1	3	0.0189654617291481	0	1	NaN	115	2	52	2	120	220	320	NaN	520	0.359940768219531	2	0	NaN	3975204.1344192	NaN	3975205.1178102	3975205.63435963
78	23	0	0	90	36.1581920903955	36.241610738255	12	0.40002484805882	2	2	4	NaN	1	5	0.0189654617291481	0	1	NaN	116	2	53	2	120	220	320	NaN	520	0.148580768145621	1	1	NaN	3975206.8180108	NaN	3975207.801398	3975208.31795683
78	23	0	0	90	36.1581920903955	36.241610738255	0	0	1	1	5	NaN	1	3	0.0189654617291481	0	1	NaN	117	2	54	2	110	210	310	NaN	510	0.466316367965192	1	1	NaN	3975209.2682546	NaN	3975210.2516495	3975210.76820513
78	23	0	0	90	36.1581920903955	36.241610738255	20	0.666708080098033	2	6	5	NaN	1	3	0.0189654617291481	0	1	NaN	118	2	55	2	120	220	320	NaN	520	0.0104104680940509	2	0	NaN	3975215.0020106	NaN	3975215.9855711	3975216.50209133
78	23	0	0	90	36.1581920903955	36.241610738255	10	0.333354040049016	2	12	5	NaN	2	5	0.0189654617291481	0	1	NaN	119	2	56	2	120	220	320	NaN	520	0.143535620998591	2	1	NaN	3975217.3190387	NaN	3975218.3024531	3975218.81899318
78	23	0	0	90	36.1581920903955	36.241610738255	23	0.766714292112738	2	9	6	NaN	2	5	0.0189654617291481	0	1	NaN	120	2	57	2	120	220	320	NaN	520	0.0104188681580126	1	0	NaN	3975219.7859632	NaN	3975220.7693524	3975221.28589273
78	23	0	0	90	36.1581920903955	36.241610738255	11	0.366689444053918	2	4	1	NaN	1	4	0.0189654617291481	0	1	NaN	121	2	58	2	120	220	320	NaN	520	0.119400368072093	2	0	NaN	3975222.1028826	NaN	3975223.086243	3975223.60279123
78	23	0	0	90	36.1581920903955	36.241610738255	0	0	1	12	1	NaN	2	5	0.0189654617291481	0	1	NaN	122	2	59	2	110	210	310	NaN	510	0.325749868061393	2	1	NaN	3975224.5364429	NaN	3975225.5198211	3975226.03636423
78	23	0	0	90	36.1581920903955	36.241610738255	17	0.566701868083328	2	9	5	NaN	2	4	0.0189654617291481	0	1	NaN	123	2	60	2	120	220	320	NaN	520	0.276450120378286	2	1	NaN	3975227.1700244	NaN	3975228.1534122	3975228.66996538
78	23	0	0	90	36.1581920903955	36.241610738255	9	0.300018636044115	2	7	3	NaN	2	3	0.0189654617291481	0	1	NaN	124	2	61	2	120	220	320	NaN	520	0.0104080205783248	2	1	NaN	3975229.7535969	NaN	3975230.737006	3975231.25354508
78	23	0	0	90	36.1581920903955	36.241610738255	17	0.566701868083328	2	5	3	NaN	1	4	0.0189654617291481	0	1	NaN	125	2	62	2	120	220	320	NaN	520	1.28783451579511	1	1	NaN	3975232.070487	NaN	3975233.0538888	3975233.57043308
78	23	0	0	90	36.1581920903955	36.241610738255	0	0	1	3	2	NaN	1	3	0.0189654617291481	0	1	NaN	126	2	63	2	110	210	310	NaN	510	0.0104115684516728	1	1	NaN	3975235.6708626	NaN	3975236.6542504	3975237.17078663
78	23	0	0	90	36.1581920903955	36.241610738255	11	0.366689444053918	2	7	1	NaN	2	5	0.0189654617291481	0	1	NaN	127	3	1	2	120	220	320	NaN	520	1.17473611561581	2	1	NaN	3975267.0239446	NaN	3975268.0073214	3975268.52386918
78	23	0	0	90	36.1581920903955	36.241610738255	23	0.766714292112738	2	2	5	NaN	1	3	0.0189654617291481	0	1	NaN	128	3	2	2	120	220	320	NaN	520	0.394757468253374	1	1	NaN	3975270.5074713	NaN	3975271.4909922	3975272.00754653
78	23	0	0	90	36.1581920903955	36.241610738255	19	0.633372676093131	2	1	5	NaN	1	4	0.0189654617291481	0	1	NaN	129	3	3	2	120	220	320	NaN	520	0.270413268357515	1	1	NaN	3975273.207868	NaN	3975274.1912717	3975274.70780643
78	23	0	0	90	36.1581920903955	36.241610738255	11	0.366689444053918	2	9	1	NaN	2	5	0.0189654617291481	0	1	NaN	130	3	4	2	120	220	320	NaN	520	0.311081568244845	2	1	NaN	3975275.7913506	NaN	3975276.774843	3975277.29139333
78	23	0	0	90	36.1581920903955	36.241610738255	15	0.500031060073525	2	12	3	NaN	2	4	0.0189654617291481	0	1	NaN	131	3	5	2	120	220	320	NaN	520	0.34189936844632	2	1	NaN	3975278.4083827	NaN	3975279.3917796	3975279.90831493
78	23	0	0	90	36.1581920903955	36.241610738255	10	0.333354040049016	2	9	1	NaN	2	4	0.0189654617291481	0	1	NaN	132	3	6	2	120	220	320	NaN	520	0.243891920894384	2	1	NaN	3975281.0586176	NaN	3975282.0420281	3975282.55858618
78	23	0	0	90	36.1581920903955	36.241610738255	12	0.40002484805882	2	2	1	NaN	1	5	0.0189654617291481	0	1	NaN	133	3	7	2	120	220	320	NaN	520	0.204991173464805	1	1	NaN	3975283.6254954	NaN	3975284.6090227	3975285.12550413
78	23	0	0	90	36.1581920903955	36.241610738255	7	0.233347828034312	2	11	1	NaN	2	5	0.0189654617291481	0	1	NaN	134	3	8	2	120	220	320	NaN	520	0.111841120757163	2	1	NaN	3975286.1424665	NaN	3975287.125846	3975287.64241648
78	23	0	0	90	36.1581920903955	36.241610738255	9	0.300018636044115	2	6	4	NaN	1	4	0.0189654617291481	0	1	NaN	135	3	9	2	120	220	320	NaN	520	0.249096820596606	2	0	NaN	3975288.9094347	NaN	3975289.8928122	3975290.40935918
78	23	0	0	90	36.1581920903955	36.241610738255	22	0.733378888107836	2	4	1	NaN	1	4	0.0189654617291481	0	1	NaN	136	3	10	2	120	220	320	NaN	520	0.225953868124634	1	1	NaN	3975291.4763185	NaN	3975292.4597146	3975292.97627593
78	23	0	0	90	36.1581920903955	36.241610738255	6	0.20001242402941	2	12	6	NaN	2	4	0.0189654617291481	0	1	NaN	137	3	11	2	120	220	320	NaN	520	0.284085121005774	2	1	NaN	3975294.0265941	NaN	3975295.0099625	3975295.52652648
78	23	0	0	90	36.1581920903955	36.241610738255	6	0.20001242402941	2	8	1	NaN	2	4	0.0189654617291481	0	1	NaN	138	3	12	2	120	220	320	NaN	520	0.315583915449679	1	0	NaN	3975296.6268309	NaN	3975297.6102208	3975298.12677258
78	23	0	0	90	36.1581920903955	36.241610738255	6	0.20001242402941	2	3	1	NaN	1	4	0.0189654617291481	0	1	NaN	139	3	13	2	120	220	320	NaN	520	0.449915667995811	1	1	NaN	3975299.2604263	NaN	3975300.2438276	3975300.76036203
78	23	0	0	90	36.1581920903955	36.241610738255	0	0	1	5	5	NaN	1	5	0.0189654617291481	0	1	NaN	140	3	14	2	110	210	310	NaN	510	0.643340168055147	1	1	NaN	3975302.0273867	NaN	3975303.0107693	3975303.52730003
78	23	0	0	90	36.1581920903955	36.241610738255	11	0.366689444053918	2	4	2	NaN	1	3	0.0189654617291481	0	1	NaN	141	3	15	2	120	220	320	NaN	520	0.581179367844015	2	0	NaN	3975304.9776781	NaN	3975305.9610468	3975306.47758893
78	23	0	0	90	36.1581920903955	36.241610738255	22	0.733378888107836	2	7	3	NaN	2	4	0.0189654617291481	0	1	NaN	142	3	16	2	120	220	320	NaN	520	0.288897668011487	2	1	NaN	3975307.8779316	NaN	3975308.8613363	3975309.37787613
78	23	0	0	90	36.1581920903955	36.241610738255	23	0.766714292112738	2	4	5	NaN	1	4	0.0189654617291481	0	1	NaN	143	3	17	2	120	220	320	NaN	520	0.272556468378752	1	1	NaN	3975310.4781839	NaN	3975311.4616121	3975311.97813123
78	23	0	0	90	36.1581920903955	36.241610738255	23	0.766714292112738	2	1	1	NaN	1	4	0.0189654617291481	0	1	NaN	144	3	18	2	120	220	320	NaN	520	0.352374442387372	2	0	NaN	3975313.0617722	NaN	3975314.0451744	3975314.56172476
78	23	0	0	90	36.1581920903955	36.241610738255	0	0	1	9	4	NaN	2	5	0.0189654617291481	0	1	NaN	145	3	19	2	110	210	310	NaN	510	0.253807320725173	1	0	NaN	3975315.7287203	NaN	3975316.7121119	3975317.22865378
78	23	0	0	90	36.1581920903955	36.241610738255	20	0.666708080098033	2	6	4	NaN	1	5	0.0189654617291481	0	1	NaN	146	3	20	2	120	220	320	NaN	520	0.206854342017323	1	1	NaN	3975318.2956098	NaN	3975319.2790856	3975319.79557536
78	23	0	0	90	36.1581920903955	36.241610738255	17	0.566701868083328	2	8	1	NaN	2	5	0.0189654617291481	0	1	NaN	147	3	21	2	120	220	320	NaN	520	0.514124920591712	2	1	NaN	3975320.8125249	NaN	3975321.7959298	3975322.31249078
78	23	0	0	90	36.1581920903955	36.241610738255	21	0.700043484102935	2	1	5	NaN	1	3	0.0189654617291481	0	1	NaN	148	3	22	2	120	220	320	NaN	520	0.280890568159521	2	0	NaN	3975323.6294764	NaN	3975324.612878	3975325.12942193
78	23	0	0	90	36.1581920903955	36.241610738255	24	0.80004969611764	2	6	5	NaN	1	4	0.0189654617291481	0	1	NaN	149	3	23	2	120	220	320	NaN	520	0.288794768042862	2	0	NaN	3975326.229746	NaN	3975327.2131469	3975327.72967453
78	23	0	0	90	36.1581920903955	36.241610738255	12	0.40002484805882	2	11	6	NaN	2	4	0.0189654617291481	0	1	NaN	150	3	24	2	120	220	320	NaN	520	0.0104110678657889	1	0	NaN	3975328.8300851	NaN	3975329.8132776	3975330.32994073
78	23	0	0	90	36.1581920903955	36.241610738255	7	0.233347828034312	2	2	4	NaN	1	3	0.0189654617291481	0	1	NaN	151	3	25	2	120	220	320	NaN	520	0.541938867885619	2	0	NaN	3975334.8805475	NaN	3975335.8640067	3975336.38052413
78	23	0	0	90	36.1581920903955	36.241610738255	21	0.700043484102935	2	10	1	NaN	2	4	0.0189654617291481	0	1	NaN	152	3	26	2	120	220	320	NaN	520	0.236003020778298	2	1	NaN	3975337.7307406	NaN	3975338.7142719	3975339.23081818
78	23	0	0	90	36.1581920903955	36.241610738255	14	0.466695656068623	2	5	4	NaN	1	4	0.0189654617291481	0	1	NaN	153	3	27	2	120	220	320	NaN	520	0.165481768082827	2	0	NaN	3975340.281116	NaN	3975341.2645245	3975341.78105983
78	23	0	0	90	36.1581920903955	36.241610738255	11	0.366689444053918	2	10	1	NaN	2	3	0.0189654617291481	0	1	NaN	154	3	28	2	120	220	320	NaN	520	0.458159868139774	1	0	NaN	3975342.9645865	NaN	3975343.9481053	3975344.46465903
78	23	0	0	90	36.1581920903955	36.241610738255	23	0.766714292112738	2	3	4	NaN	1	4	0.0189654617291481	0	1	NaN	155	3	29	2	120	220	320	NaN	520	1.89063436817378	2	0	NaN	3975345.7316396	NaN	3975346.7150501	3975347.23159233
78	23	0	0	90	36.1581920903955	36.241610738255	14	0.466695656068623	2	2	2	NaN	1	5	0.0189654617291481	0	1	NaN	156	3	30	2	120	220	320	NaN	520	0.218680162914097	2	0	NaN	3975349.9321484	NaN	3975350.9154688	3975351.43200574
78	23	0	0	90	36.1581920903955	36.241610738255	6	0.20001242402941	2	9	4	NaN	2	3	0.0189654617291481	0	1	NaN	157	3	31	2	120	220	320	NaN	520	0.236996620893478	1	0	NaN	3975352.4656461	NaN	3975353.449041	3975353.96561268
78	23	0	0	90	36.1581920903955	36.241610738255	17	0.566701868083328	2	12	6	NaN	2	4	0.0189654617291481	0	1	NaN	158	3	32	2	120	220	320	NaN	520	0.398432220797986	2	1	NaN	3975355.0157515	NaN	3975355.9992958	3975356.51584178
78	23	0	0	90	36.1581920903955	36.241610738255	24	0.80004969611764	2	4	2	NaN	1	5	0.0189654617291481	0	1	NaN	159	3	33	2	120	220	320	NaN	520	0.282090668100864	2	0	NaN	3975357.7328447	NaN	3975358.716205	3975359.23276723
78	23	0	0	90	36.1581920903955	36.241610738255	7	0.233347828034312	2	6	3	NaN	1	4	0.0189654617291481	0	1	NaN	160	3	34	2	120	220	320	NaN	520	0.281735726632178	2	0	NaN	3975360.3330803	NaN	3975361.3165731	3975361.83303377
78	23	0	0	90	36.1581920903955	36.241610738255	20	0.666708080098033	2	5	5	NaN	1	3	0.0189654617291481	0	1	NaN	161	3	35	2	120	220	320	NaN	520	0.209048220422119	1	1	NaN	3975362.9333458	NaN	3975363.9167397	3975364.43329148
78	23	0	0	90	36.1581920903955	36.241610738255	25	0.833385100122541	2	5	5	NaN	1	3	0.0189654617291481	0	1	NaN	162	3	36	2	120	220	320	NaN	520	0.315533142071217	1	1	NaN	3975365.4669208	NaN	3975366.4503109	3975366.96686696
78	23	0	0	90	36.1581920903955	36.241610738255	10	0.333354040049016	2	4	5	NaN	1	4	0.0189654617291481	0	1	NaN	163	3	37	2	120	220	320	NaN	520	0.530004068277776	1	1	NaN	3975368.1005305	NaN	3975369.0839098	3975369.60045343
78	23	0	0	90	36.1581920903955	36.241610738255	10	0.333354040049016	2	2	2	NaN	1	3	0.0189654617291481	0	1	NaN	164	3	38	2	120	220	320	NaN	520	0.264365968294442	1	1	NaN	3975370.933993	NaN	3975371.9175387	3975372.43407603
78	23	0	0	90	36.1581920903955	36.241610738255	19	0.633372676093131	2	12	2	NaN	2	4	0.0189654617291481	0	1	NaN	165	3	39	2	120	220	320	NaN	520	0.545165868476033	2	1	NaN	3975373.5177256	NaN	3975374.5011092	3975375.01767243
78	23	0	0	90	36.1581920903955	36.241610738255	23	0.766714292112738	2	7	2	NaN	2	4	0.0189654617291481	0	1	NaN	166	3	40	2	120	220	320	NaN	520	0.286208215169609	2	1	NaN	3975376.3846548	NaN	3975377.3680388	3975377.88460158
78	23	0	0	90	36.1581920903955	36.241610738255	17	0.566701868083328	2	9	2	NaN	2	4	0.0189654617291481	0	1	NaN	167	3	41	2	120	220	320	NaN	520	0.597860821057111	1	0	NaN	3975378.9849226	NaN	3975379.9683091	3975380.48486778
78	23	0	0	90	36.1581920903955	36.241610738255	24	0.80004969611764	2	11	1	NaN	2	3	0.0189654617291481	0	1	NaN	168	3	42	2	120	220	320	NaN	520	0.273029373958707	1	0	NaN	3975381.9018581	NaN	3975382.8852644	3975383.40182183
78	23	0	0	90	36.1581920903955	36.241610738255	12	0.40002484805882	2	5	3	NaN	1	5	0.0189654617291481	0	1	NaN	169	3	43	2	120	220	320	NaN	520	0.296717336867005	2	0	NaN	3975384.7021569	NaN	3975385.6855425	3975386.20209476
78	23	0	0	90	36.1581920903955	36.241610738255	19	0.633372676093131	2	7	6	NaN	2	5	0.0189654617291481	0	1	NaN	170	3	44	2	120	220	320	NaN	520	0.295309515669942	2	1	NaN	3975387.319069	NaN	3975388.302473	3975388.81901518
78	23	0	0	90	36.1581920903955	36.241610738255	25	0.833385100122541	2	7	1	NaN	2	4	0.0189654617291481	0	1	NaN	171	3	45	2	120	220	320	NaN	520	0.206984731834382	2	1	NaN	3975389.9359701	NaN	3975390.9193892	3975391.43593767
78	23	0	0	90	36.1581920903955	36.241610738255	7	0.233347828034312	2	8	1	NaN	2	4	0.0189654617291481	0	1	NaN	172	3	46	2	120	220	320	NaN	520	0.321565152611583	2	1	NaN	3975392.4528991	NaN	3975393.4363018	3975393.95284975
78	23	0	0	90	36.1581920903955	36.241610738255	24	0.80004969611764	2	4	6	NaN	1	3	0.0189654617291481	0	1	NaN	173	3	47	2	120	220	320	NaN	520	0.240413668099791	1	1	NaN	3975395.0864739	NaN	3975396.0699054	3975396.58643713
78	23	0	0	90	36.1581920903955	36.241610738255	0	0	1	8	2	NaN	2	5	0.0189654617291481	0	1	NaN	174	3	48	2	110	210	310	NaN	510	0.490153515711427	2	1	NaN	3975397.6367373	NaN	3975398.6201408	3975399.13668448
78	23	0	0	90	36.1581920903955	36.241610738255	13	0.433360252063721	2	7	6	NaN	2	4	0.0189654617291481	0	1	NaN	175	3	49	2	120	220	320	NaN	520	0.0104414629749954	1	0	NaN	3975400.4370241	NaN	3975401.4204242	3975401.93696424
78	23	0	0	90	36.1581920903955	36.241610738255	0	0	1	2	5	NaN	1	5	0.0189654617291481	0	1	NaN	176	3	50	2	110	210	310	NaN	510	0.284928620792925	1	1	NaN	3975402.7537834	NaN	3975403.7372145	3975404.25386648
78	23	0	0	90	36.1581920903955	36.241610738255	22	0.733378888107836	2	12	2	NaN	2	4	0.0189654617291481	0	1	NaN	177	3	51	2	120	220	320	NaN	520	0.996315767988563	2	1	NaN	3975405.3541775	NaN	3975406.3375755	3975406.85410843
78	23	0	0	90	36.1581920903955	36.241610738255	0	0	1	7	1	NaN	2	5	0.0189654617291481	0	1	NaN	178	3	52	2	110	210	310	NaN	510	0.263403167948127	1	0	NaN	3975408.6711528	NaN	3975409.654467	3975410.17111033
78	23	0	0	90	36.1581920903955	36.241610738255	6	0.20001242402941	2	8	2	NaN	2	4	0.0189654617291481	0	1	NaN	179	3	53	2	120	220	320	NaN	520	0.248118120711297	1	0	NaN	3975411.2547545	NaN	3975412.2381384	3975412.75470208
78	23	0	0	90	36.1581920903955	36.241610738255	15	0.500031060073525	2	8	2	NaN	2	3	0.0189654617291481	0	1	NaN	180	3	54	2	120	220	320	NaN	520	0.0810119681991637	1	0	NaN	3975413.8216609	NaN	3975414.8051102	3975415.32161133
78	23	0	0	90	36.1581920903955	36.241610738255	14	0.466695656068623	2	12	4	NaN	2	4	0.0189654617291481	0	1	NaN	181	3	55	2	120	220	320	NaN	520	0.265849867835641	2	1	NaN	3975416.5884798	NaN	3975417.5720016	3975418.08854473
78	23	0	0	90	36.1581920903955	36.241610738255	21	0.700043484102935	2	7	5	NaN	2	4	0.0189654617291481	0	1	NaN	182	3	56	2	120	220	320	NaN	520	0.307367420755327	2	1	NaN	3975419.1553912	NaN	3975420.1389209	3975420.65547808
78	23	0	0	90	36.1581920903955	36.241610738255	9	0.300018636044115	2	4	3	NaN	1	3	0.0189654617291481	0	1	NaN	183	3	57	2	120	220	320	NaN	520	0.498319121077657	1	1	NaN	3975421.7725169	NaN	3975422.7558434	3975423.27240028
78	23	0	0	90	36.1581920903955	36.241610738255	13	0.433360252063721	2	10	6	NaN	2	5	0.0189654617291481	0	1	NaN	184	3	58	2	120	220	320	NaN	520	0.297327168285847	1	0	NaN	3975424.5892385	NaN	3975425.5728959	3975426.08933013
78	23	0	0	90	36.1581920903955	36.241610738255	11	0.366689444053918	2	11	5	NaN	2	5	0.0189654617291481	0	1	NaN	185	3	59	2	120	220	320	NaN	520	0.320568715687841	1	0	NaN	3975427.2064137	NaN	3975428.1897418	3975428.70626218
78	23	0	0	90	36.1581920903955	36.241610738255	6	0.20001242402941	2	1	1	NaN	1	5	0.0189654617291481	0	1	NaN	186	3	60	2	120	220	320	NaN	520	0.703110315371305	1	1	NaN	3975429.839899	NaN	3975430.8233098	3975431.33985178
78	23	0	0	90	36.1581920903955	36.241610738255	7	0.233347828034312	2	2	6	NaN	1	4	0.0189654617291481	0	1	NaN	187	3	61	2	120	220	320	NaN	520	0.0102687422186136	2	0	NaN	3975432.8568755	NaN	3975433.8402918	3975434.35682486
78	23	0	0	90	36.1581920903955	36.241610738255	11	0.366689444053918	2	1	4	NaN	1	3	0.0189654617291481	0	1	NaN	188	3	62	2	120	220	320	NaN	520	0.328544610645622	2	0	NaN	3975435.1904318	NaN	3975436.1738575	3975436.69037299
78	23	0	0	90	36.1581920903955	36.241610738255	18	0.60003727208823	2	10	3	NaN	2	3	0.0189654617291481	0	1	NaN	189	3	63	2	120	220	320	NaN	520	0.30203806841746	2	1	NaN	3975437.8406862	NaN	3975438.824118	3975439.34063123
78	23	0	0	90	36.1581920903955	36.241610738255	6	0.20001242402941	2	2	1	NaN	1	4	0.0189654617291481	0	1	NaN	190	4	1	2	120	220	320	NaN	520	0.706004920881242	1	1	NaN	3975483.0450062	NaN	3975484.028589	3975484.54508078
78	23	0	0	90	36.1581920903955	36.241610738255	14	0.466695656068623	2	7	1	NaN	2	4	0.0189654617291481	0	1	NaN	191	4	2	2	120	220	320	NaN	520	0.376596468500793	1	0	NaN	3975486.0620874	NaN	3975487.0454895	3975487.56203313
78	23	0	0	90	36.1581920903955	36.241610738255	21	0.700043484102935	2	4	1	NaN	1	5	0.0189654617291481	0	1	NaN	192	4	3	2	120	220	320	NaN	520	0.444384668488055	2	0	NaN	3975488.7623532	NaN	3975489.7457592	3975490.26230123
78	23	0	0	90	36.1581920903955	36.241610738255	16	0.533366464078426	2	12	5	NaN	2	3	0.0189654617291481	0	1	NaN	193	4	4	2	120	220	320	NaN	520	0.333777420688421	2	1	NaN	3975491.5291998	NaN	3975492.5126816	3975493.02924898
78	23	0	0	90	36.1581920903955	36.241610738255	8	0.266683232039213	2	2	6	NaN	1	3	0.0189654617291481	0	1	NaN	194	4	5	2	120	220	320	NaN	520	0.355160110164434	2	0	NaN	3975494.1795717	NaN	3975495.1629506	3975495.67949769
78	23	0	0	90	36.1581920903955	36.241610738255	12	0.40002484805882	2	10	6	NaN	2	4	0.0189654617291481	0	1	NaN	195	4	6	2	120	220	320	NaN	520	0.272518589626998	1	0	NaN	3975496.846482	NaN	3975497.8298852	3975498.34643331
78	23	0	0	90	36.1581920903955	36.241610738255	13	0.433360252063721	2	4	3	NaN	1	5	0.0189654617291481	0	1	NaN	196	4	7	2	120	220	320	NaN	520	0.344337767921388	1	1	NaN	3975499.4301653	NaN	3975500.4134902	3975500.93001173
78	23	0	0	90	36.1581920903955	36.241610738255	0	0	1	12	4	NaN	2	5	0.0189654617291481	0	1	NaN	197	4	8	2	110	210	310	NaN	510	0.237695715390146	1	0	NaN	3975502.0969567	NaN	3975503.0804322	3975503.59696278
78	23	0	0	90	36.1581920903955	36.241610738255	17	0.566701868083328	2	4	3	NaN	1	4	0.0189654617291481	0	1	NaN	198	4	9	2	120	220	320	NaN	520	0.183477120939642	2	0	NaN	3975504.6472585	NaN	3975505.6306411	3975506.14720358
78	23	0	0	90	36.1581920903955	36.241610738255	15	0.500031060073525	2	11	4	NaN	2	3	0.0189654617291481	0	1	NaN	199	4	10	2	120	220	320	NaN	520	0.299132820684463	2	1	NaN	3975507.1475079	NaN	3975508.1308758	3975508.64744538
78	23	0	0	90	36.1581920903955	36.241610738255	18	0.60003727208823	2	2	2	NaN	1	4	0.0189654617291481	0	1	NaN	200	4	11	2	120	220	320	NaN	520	0.506563110277057	2	0	NaN	3975509.7644455	NaN	3975510.7478226	3975511.26435879
78	23	0	0	90	36.1581920903955	36.241610738255	12	0.40002484805882	2	4	3	NaN	1	3	0.0189654617291481	0	1	NaN	201	4	12	2	120	220	320	NaN	520	0.313466552179307	2	0	NaN	3975512.5813626	NaN	3975513.5647673	3975514.08130195
78	23	0	0	90	36.1581920903955	36.241610738255	25	0.833385100122541	2	1	6	NaN	1	3	0.0189654617291481	0	1	NaN	202	4	13	2	120	220	320	NaN	520	0.0959593681618571	1	1	NaN	3975515.2148225	NaN	3975516.1983548	3975516.71489353
78	23	0	0	90	36.1581920903955	36.241610738255	10	0.333354040049016	2	1	3	NaN	1	4	0.0189654617291481	0	1	NaN	203	4	14	2	120	220	320	NaN	520	0.271184920798987	2	0	NaN	3975517.6318529	NaN	3975518.6152475	3975519.13181198
78	23	0	0	90	36.1581920903955	36.241610738255	8	0.266683232039213	2	6	6	NaN	1	5	0.0189654617291481	0	1	NaN	204	4	15	2	120	220	320	NaN	520	0.279430120717734	2	0	NaN	3975520.2154716	NaN	3975521.1988425	3975521.71539218
78	23	0	0	90	36.1581920903955	36.241610738255	17	0.566701868083328	2	3	3	NaN	1	4	0.0189654617291481	0	1	NaN	205	4	16	2	120	220	320	NaN	520	0.215139568317682	1	1	NaN	3975522.8157033	NaN	3975523.7990941	3975524.31564643
78	23	0	0	90	36.1581920903955	36.241610738255	12	0.40002484805882	2	9	2	NaN	2	3	0.0189654617291481	0	1	NaN	206	4	17	2	120	220	320	NaN	520	0.329735968261957	1	0	NaN	3975525.3492865	NaN	3975526.3326813	3975526.84922193
78	23	0	0	90	36.1581920903955	36.241610738255	21	0.700043484102935	2	5	4	NaN	1	4	0.0189654617291481	0	1	NaN	207	4	18	2	120	220	320	NaN	520	0.295348668005317	1	1	NaN	3975527.9995469	NaN	3975528.9829468	3975529.49949433
78	23	0	0	90	36.1581920903955	36.241610738255	24	0.80004969611764	2	2	6	NaN	1	4	0.0189654617291481	0	1	NaN	208	4	19	2	120	220	320	NaN	520	0.271290168166161	1	1	NaN	3975530.5998191	NaN	3975531.5832097	3975532.09973793
78	23	0	0	90	36.1581920903955	36.241610738255	16	0.533366464078426	2	4	1	NaN	1	5	0.0189654617291481	0	1	NaN	209	4	20	2	120	220	320	NaN	520	0.215368268080056	1	1	NaN	3975533.1834448	NaN	3975534.1667802	3975534.68333153
78	23	0	0	90	36.1581920903955	36.241610738255	6	0.20001242402941	2	10	6	NaN	2	4	0.0189654617291481	0	1	NaN	210	4	21	2	120	220	320	NaN	520	0.31399126816541	2	1	NaN	3975535.7169767	NaN	3975536.7003662	3975537.21691483
78	23	0	0	90	36.1581920903955	36.241610738255	13	0.433360252063721	2	4	2	NaN	1	5	0.0189654617291481	0	1	NaN	211	4	22	2	120	220	320	NaN	520	0.0104098683223128	2	0	NaN	3975538.3505504	NaN	3975539.3340221	3975539.85050663
78	23	0	0	90	36.1581920903955	36.241610738255	10	0.333354040049016	2	11	5	NaN	2	3	0.0189654617291481	0	1	NaN	212	4	23	2	120	220	320	NaN	520	0.291447720490396	2	1	NaN	3975540.667413	NaN	3975541.6508515	3975542.16740378
78	23	0	0	90	36.1581920903955	36.241610738255	17	0.566701868083328	2	2	1	NaN	1	5	0.0189654617291481	0	1	NaN	213	4	24	2	120	220	320	NaN	520	0.283070720732212	2	0	NaN	3975543.2677059	NaN	3975544.2511004	3975544.76765728
78	23	0	0	90	36.1581920903955	36.241610738255	21	0.700043484102935	2	6	1	NaN	1	4	0.0189654617291481	0	1	NaN	214	4	25	2	120	220	320	NaN	520	0.370707920752466	1	1	NaN	3975545.8679668	NaN	3975546.8513635	3975547.36791658
78	23	0	0	90	36.1581920903955	36.241610738255	6	0.20001242402941	2	11	1	NaN	2	3	0.0189654617291481	0	1	NaN	215	4	26	2	120	220	320	NaN	520	0.294908868148923	2	1	NaN	3975548.551559	NaN	3975549.5349582	3975550.05151033
78	23	0	0	90	36.1581920903955	36.241610738255	12	0.40002484805882	2	12	1	NaN	2	3	0.0189654617291481	0	1	NaN	216	4	27	2	120	220	320	NaN	520	0.278767068404704	2	1	NaN	3975551.1518327	NaN	3975552.1352055	3975552.65175583
78	23	0	0	90	36.1581920903955	36.241610738255	9	0.300018636044115	2	2	5	NaN	1	5	0.0189654617291481	0	1	NaN	217	4	28	2	120	220	320	NaN	520	0.254739568103105	2	0	NaN	3975553.7519729	NaN	3975554.7354613	3975555.25201263
78	23	0	0	90	36.1581920903955	36.241610738255	17	0.566701868083328	2	7	1	NaN	2	5	0.0189654617291481	0	1	NaN	218	4	29	2	120	220	320	NaN	520	0.0103732263669372	1	0	NaN	3975556.3356595	NaN	3975557.3190634	3975557.83560187
78	23	0	0	90	36.1581920903955	36.241610738255	25	0.833385100122541	2	4	4	NaN	1	3	0.0189654617291481	0	1	NaN	219	4	30	2	120	220	320	NaN	520	0.0104273678734899	1	1	NaN	3975558.6692048	NaN	3975559.6525816	3975560.16917213
78	23	0	0	90	36.1581920903955	36.241610738255	6	0.20001242402941	2	9	5	NaN	2	4	0.0189654617291481	0	1	NaN	220	4	31	2	120	220	320	NaN	520	0.0103946207091212	2	1	NaN	3975560.9861238	NaN	3975561.9695346	3975562.48606738
78	23	0	0	90	36.1581920903955	36.241610738255	0	0	1	2	3	NaN	1	4	0.0189654617291481	0	1	NaN	221	4	32	2	110	210	310	NaN	510	0.343699468299747	2	0	NaN	3975563.3030155	NaN	3975564.2863837	3975564.80296163
78	23	0	0	90	36.1581920903955	36.241610738255	15	0.500031060073525	2	11	2	NaN	2	5	0.0189654617291481	0	1	NaN	222	4	33	2	120	220	320	NaN	520	0.0103969206102192	1	0	NaN	3975565.9699497	NaN	3975566.9534228	3975567.46988968
78	23	0	0	90	36.1581920903955	36.241610738255	6	0.20001242402941	2	6	2	NaN	1	3	0.0189654617291481	0	1	NaN	223	4	34	2	120	220	320	NaN	520	0.271965068299323	1	1	NaN	3975568.2866851	NaN	3975569.2702366	3975569.78677753
78	23	0	0	90	36.1581920903955	36.241610738255	22	0.733378888107836	2	8	5	NaN	2	5	0.0189654617291481	0	1	NaN	224	4	35	2	120	220	320	NaN	520	0.288246568292379	1	0	NaN	3975570.8704157	NaN	3975571.8537661	3975572.37036083
78	23	0	0	90	36.1581920903955	36.241610738255	9	0.300018636044115	2	8	4	NaN	2	4	0.0189654617291481	0	1	NaN	225	4	36	2	120	220	320	NaN	520	0.152295642066747	1	0	NaN	3975573.4706618	NaN	3975574.4540627	3975574.97062556
78	23	0	0	90	36.1581920903955	36.241610738255	7	0.233347828034312	2	6	4	NaN	1	3	0.0189654617291481	0	1	NaN	226	4	37	2	120	220	320	NaN	520	0.0104163680225611	2	0	NaN	3975575.9374592	NaN	3975576.9209837	3975577.43752243
78	23	0	0	90	36.1581920903955	36.241610738255	17	0.566701868083328	2	7	6	NaN	2	4	0.0189654617291481	0	1	NaN	227	4	38	2	120	220	320	NaN	520	0.199574836995453	1	0	NaN	3975578.2711307	NaN	3975579.2545396	3975579.77109496
78	23	0	0	90	36.1581920903955	36.241610738255	11	0.366689444053918	2	8	3	NaN	2	4	0.0189654617291481	0	1	NaN	228	4	39	2	120	220	320	NaN	520	0.258791862986982	2	1	NaN	3975580.788047	NaN	3975581.7714475	3975582.28799844
78	23	0	0	90	36.1581920903955	36.241610738255	13	0.433360252063721	2	12	5	NaN	2	4	0.0189654617291481	0	1	NaN	229	4	40	2	120	220	320	NaN	520	0.964141889475286	1	0	NaN	3975583.354993	NaN	3975584.3383681	3975584.85493361
78	23	0	0	90	36.1581920903955	36.241610738255	6	0.20001242402941	2	10	2	NaN	2	4	0.0189654617291481	0	1	NaN	230	4	41	2	120	220	320	NaN	520	0.200159920845181	1	0	NaN	3975586.6385881	NaN	3975587.6220353	3975588.13858568
78	23	0	0	90	36.1581920903955	36.241610738255	24	0.80004969611764	2	5	3	NaN	1	5	0.0189654617291481	0	1	NaN	231	4	42	2	120	220	320	NaN	520	0.355145568028092	1	1	NaN	3975589.1555463	NaN	3975590.138945	3975590.65548633
78	23	0	0	90	36.1581920903955	36.241610738255	23	0.766714292112738	2	5	3	NaN	1	3	0.0189654617291481	0	1	NaN	232	4	43	2	120	220	320	NaN	520	0.0104273157194257	2	0	NaN	3975591.8391421	NaN	3975592.8225411	3975593.33908358
78	23	0	0	90	36.1581920903955	36.241610738255	12	0.40002484805882	2	9	5	NaN	2	5	0.0189654617291481	0	1	NaN	233	4	44	2	120	220	320	NaN	520	0.562598363030702	2	1	NaN	3975594.1560342	NaN	3975595.1394941	3975595.65598234
78	23	0	0	90	36.1581920903955	36.241610738255	13	0.433360252063721	2	1	4	NaN	1	5	0.0189654617291481	0	1	NaN	234	4	45	2	120	220	320	NaN	520	0.303308120928705	1	1	NaN	3975597.0396597	NaN	3975598.0230618	3975598.53960828
78	23	0	0	90	36.1581920903955	36.241610738255	19	0.633372676093131	2	8	6	NaN	2	5	0.0189654617291481	0	1	NaN	235	4	46	2	120	220	320	NaN	520	0.429594584275037	1	0	NaN	3975599.6732433	NaN	3975600.6566387	3975601.17319962
78	23	0	0	90	36.1581920903955	36.241610738255	14	0.466695656068623	2	9	4	NaN	2	5	0.0189654617291481	0	1	NaN	236	4	47	2	120	220	320	NaN	520	0.27170926798135	1	0	NaN	3975602.4235225	NaN	3975603.4069887	3975603.92345743
78	23	0	0	90	36.1581920903955	36.241610738255	20	0.666708080098033	2	8	1	NaN	2	5	0.0189654617291481	0	1	NaN	237	4	48	2	120	220	320	NaN	520	0.0105189522728324	2	1	NaN	3975605.0070951	NaN	3975605.9904888	3975606.50703925
78	23	0	0	90	36.1581920903955	36.241610738255	19	0.633372676093131	2	7	4	NaN	2	4	0.0189654617291481	0	1	NaN	238	4	49	2	120	220	320	NaN	520	0.43518406804651	2	1	NaN	3975607.3239876	NaN	3975608.3073928	3975608.82395333
78	23	0	0	90	36.1581920903955	36.241610738255	24	0.80004969611764	2	6	2	NaN	1	4	0.0189654617291481	0	1	NaN	239	4	50	2	120	220	320	NaN	520	0.0103971208445728	2	0	NaN	3975610.0742475	NaN	3975611.057663	3975611.57421858
78	23	0	0	90	36.1581920903955	36.241610738255	0	0	1	10	1	NaN	2	5	0.0189654617291481	0	1	NaN	240	4	51	2	110	210	310	NaN	510	0.239099115598947	2	1	NaN	3975612.4078202	NaN	3975613.3912316	3975613.90776818
78	23	0	0	90	36.1581920903955	36.241610738255	20	0.666708080098033	2	4	1	NaN	1	5	0.0189654617291481	0	1	NaN	241	4	52	2	120	220	320	NaN	520	0.209028142038733	1	1	NaN	3975614.9579556	NaN	3975615.9414759	3975616.45802586
78	23	0	0	90	36.1581920903955	36.241610738255	18	0.60003727208823	2	9	6	NaN	2	3	0.0189654617291481	0	1	NaN	242	4	53	2	120	220	320	NaN	520	0.259948567952961	1	0	NaN	3975617.4749964	NaN	3975618.4584051	3975618.97493373
78	23	0	0	90	36.1581920903955	36.241610738255	6	0.20001242402941	2	6	6	NaN	1	4	0.0189654617291481	0	1	NaN	243	4	54	2	120	220	320	NaN	520	0.293319968041033	1	1	NaN	3975620.0419124	NaN	3975621.0253059	3975621.54186523
78	23	0	0	90	36.1581920903955	36.241610738255	17	0.566701868083328	2	11	5	NaN	2	4	0.0189654617291481	0	1	NaN	244	4	55	2	120	220	320	NaN	520	0.309041320811957	2	1	NaN	3975622.6421716	NaN	3975623.6255772	3975624.14211968
78	23	0	0	90	36.1581920903955	36.241610738255	22	0.733378888107836	2	7	4	NaN	2	3	0.0189654617291481	0	1	NaN	245	4	56	2	120	220	320	NaN	520	0.0102585945278406	2	1	NaN	3975625.2590749	NaN	3975626.2425085	3975626.75904901
78	23	0	0	90	36.1581920903955	36.241610738255	16	0.533366464078426	2	7	6	NaN	2	3	0.0189654617291481	0	1	NaN	246	4	57	2	120	220	320	NaN	520	0.262607820797712	2	1	NaN	3975627.5925838	NaN	3975628.5760603	3975629.09260428
78	23	0	0	90	36.1581920903955	36.241610738255	20	0.666708080098033	2	12	4	NaN	2	3	0.0189654617291481	0	1	NaN	247	4	58	2	120	220	320	NaN	520	0.671055720653385	2	1	NaN	3975630.1762421	NaN	3975631.159636	3975631.67618228
78	23	0	0	90	36.1581920903955	36.241610738255	9	0.300018636044115	2	1	4	NaN	1	3	0.0189654617291481	0	1	NaN	248	4	59	2	120	220	320	NaN	520	0.0104075684212148	1	1	NaN	3975633.1598898	NaN	3975634.1432857	3975634.65981353
78	23	0	0	90	36.1581920903955	36.241610738255	11	0.366689444053918	2	8	1	NaN	2	3	0.0189654617291481	0	1	NaN	249	4	60	2	120	220	320	NaN	520	0.32172081572935	1	0	NaN	3975635.4932882	NaN	3975636.4768327	3975636.99337108
78	23	0	0	90	36.1581920903955	36.241610738255	7	0.233347828034312	2	5	1	NaN	1	4	0.0189654617291481	0	1	NaN	250	4	61	2	120	220	320	NaN	520	0.296035821083933	1	1	NaN	3975638.1270015	NaN	3975639.1104181	3975639.62696638
78	23	0	0	90	36.1581920903955	36.241610738255	0	0	1	11	4	NaN	2	3	0.0189654617291481	0	1	NaN	251	4	62	2	110	210	310	NaN	510	0.335069668013602	1	0	NaN	3975640.743963	NaN	3975641.7273526	3975642.24389343
78	23	0	0	90	36.1581920903955	36.241610738255	12	0.40002484805882	2	8	1	NaN	2	3	0.0189654617291481	0	1	NaN	252	4	63	2	120	220	320	NaN	520	0.348627720493823	1	0	NaN	3975643.3942162	NaN	3975644.377497	3975644.89415888
78	23	0	0	90	36.1581920903955	36.241610738255	23	0.766714292112738	2	11	5	NaN	2	4	0.0189654617291481	0	1	NaN	253	5	1	2	120	220	320	NaN	520	0.564726120792329	1	0	NaN	3975770.9067416	NaN	3975771.8901254	3975772.40666458
78	23	0	0	90	36.1581920903955	36.241610738255	21	0.700043484102935	2	12	1	NaN	2	5	0.0189654617291481	0	1	NaN	254	5	2	2	120	220	320	NaN	520	0.369073120877147	1	0	NaN	3975774.1902521	NaN	3975775.1737753	3975775.69032718
78	23	0	0	90	36.1581920903955	36.241610738255	8	0.266683232039213	2	6	5	NaN	1	5	0.0189654617291481	0	1	NaN	255	5	3	2	120	220	320	NaN	520	0.565470920410007	1	1	NaN	3975776.8739818	NaN	3975777.8573462	3975778.37392738
78	23	0	0	90	36.1581920903955	36.241610738255	16	0.533366464078426	2	2	5	NaN	1	3	0.0189654617291481	0	1	NaN	256	5	4	2	120	220	320	NaN	520	0.282443867996335	2	0	NaN	3975779.7409182	NaN	3975780.7243104	3975781.24086993
78	23	0	0	90	36.1581920903955	36.241610738255	24	0.80004969611764	2	10	6	NaN	2	5	0.0189654617291481	0	1	NaN	257	5	5	2	120	220	320	NaN	520	0.266023468226194	1	0	NaN	3975782.3411908	NaN	3975783.3245741	3975783.84111693
78	23	0	0	90	36.1581920903955	36.241610738255	24	0.80004969611764	2	3	5	NaN	1	4	0.0189654617291481	0	1	NaN	258	5	6	2	120	220	320	NaN	520	0.306284268386662	2	0	NaN	3975784.9247897	NaN	3975785.9080563	3975786.42470613
78	23	0	0	90	36.1581920903955	36.241610738255	13	0.433360252063721	2	1	6	NaN	1	5	0.0189654617291481	0	1	NaN	259	5	7	2	120	220	320	NaN	520	0.377175920642912	2	0	NaN	3975787.5417025	NaN	3975788.5250882	3975789.04164168
78	23	0	0	90	36.1581920903955	36.241610738255	20	0.666708080098033	2	12	1	NaN	2	3	0.0189654617291481	0	1	NaN	260	5	8	2	120	220	320	NaN	520	0.309750215616077	1	0	NaN	3975790.2251394	NaN	3975791.2086851	3975791.72522748
78	23	0	0	90	36.1581920903955	36.241610738255	19	0.633372676093131	2	8	4	NaN	2	4	0.0189654617291481	0	1	NaN	261	5	9	2	120	220	320	NaN	520	0.332903267815709	2	1	NaN	3975792.8422346	NaN	3975793.8256128	3975794.34216593
78	23	0	0	90	36.1581920903955	36.241610738255	19	0.633372676093131	2	1	6	NaN	1	4	0.0189654617291481	0	1	NaN	262	5	10	2	120	220	320	NaN	520	0.354452568106353	2	0	NaN	3975795.4924618	NaN	3975796.4758775	3975796.99241553
78	23	0	0	90	36.1581920903955	36.241610738255	25	0.833385100122541	2	3	5	NaN	1	3	0.0189654617291481	0	1	NaN	263	5	11	2	120	220	320	NaN	520	0.360134520567954	1	1	NaN	3975798.1594174	NaN	3975799.1427868	3975799.65935128
78	23	0	0	90	36.1581920903955	36.241610738255	17	0.566701868083328	2	6	6	NaN	1	3	0.0189654617291481	0	1	NaN	264	5	12	2	120	220	320	NaN	520	0.325150867924094	1	1	NaN	3975800.826386	NaN	3975801.8097224	3975802.32626553
78	23	0	0	90	36.1581920903955	36.241610738255	20	0.666708080098033	2	4	4	NaN	1	4	0.0189654617291481	0	1	NaN	265	5	13	2	120	220	320	NaN	520	0.274542368017137	1	1	NaN	3975803.476596	NaN	3975804.4599855	3975804.97652623
78	23	0	0	90	36.1581920903955	36.241610738255	8	0.266683232039213	2	11	3	NaN	2	4	0.0189654617291481	0	1	NaN	266	5	14	2	120	220	320	NaN	520	0.714723168406636	2	1	NaN	3975806.0601659	NaN	3975807.0435687	3975807.56012483
78	23	0	0	90	36.1581920903955	36.241610738255	13	0.433360252063721	2	2	2	NaN	1	5	0.0189654617291481	0	1	NaN	267	5	15	2	120	220	320	NaN	520	0.442028468009084	2	0	NaN	3975809.0769933	NaN	3975810.0605477	3975810.57707613
78	23	0	0	90	36.1581920903955	36.241610738255	11	0.366689444053918	2	2	3	NaN	1	5	0.0189654617291481	0	1	NaN	268	5	16	2	120	220	320	NaN	520	0.315874068066478	2	0	NaN	3975811.8274138	NaN	3975812.8108072	3975813.32734463
78	23	0	0	90	36.1581920903955	36.241610738255	0	0	1	8	3	NaN	2	4	0.0189654617291481	0	1	NaN	269	5	17	2	110	210	310	NaN	510	0.274248068220913	1	0	NaN	3975814.4608704	NaN	3975815.4443967	3975815.96093793
78	23	0	0	90	36.1581920903955	36.241610738255	10	0.333354040049016	2	8	6	NaN	2	3	0.0189654617291481	0	1	NaN	270	5	18	2	120	220	320	NaN	520	0.386818815488368	1	0	NaN	3975817.0445947	NaN	3975818.0279673	3975818.54452618
78	23	0	0	90	36.1581920903955	36.241610738255	6	0.20001242402941	2	7	5	NaN	2	5	0.0189654617291481	0	1	NaN	271	5	19	2	120	220	320	NaN	520	0.310655920766294	1	0	NaN	3975819.7448525	NaN	3975820.7282469	3975821.24480248
78	23	0	0	90	36.1581920903955	36.241610738255	17	0.566701868083328	2	4	3	NaN	1	5	0.0189654617291481	0	1	NaN	272	5	20	2	120	220	320	NaN	520	0.23688101535663	1	1	NaN	3975822.3785229	NaN	3975823.3618384	3975823.87838618
78	23	0	0	90	36.1581920903955	36.241610738255	20	0.666708080098033	2	10	2	NaN	2	4	0.0189654617291481	0	1	NaN	273	5	21	2	120	220	320	NaN	520	0.254603915382177	1	0	NaN	3975824.9287109	NaN	3975825.9120813	3975826.42863598
78	23	0	0	90	36.1581920903955	36.241610738255	12	0.40002484805882	2	4	4	NaN	1	4	0.0189654617291481	0	1	NaN	274	5	22	2	120	220	320	NaN	520	0.0104107679799199	2	0	NaN	3975827.4956053	NaN	3975828.479001	3975828.99556133
78	23	0	0	90	36.1581920903955	36.241610738255	9	0.300018636044115	2	12	2	NaN	2	4	0.0189654617291481	0	1	NaN	275	5	23	2	120	220	320	NaN	520	0.57101476797834	2	1	NaN	3975829.8124948	NaN	3975830.795906	3975831.31244673
78	23	0	0	90	36.1581920903955	36.241610738255	22	0.733378888107836	2	5	5	NaN	1	5	0.0189654617291481	0	1	NaN	276	5	24	2	120	220	320	NaN	520	0.462979720439762	2	0	NaN	3975832.6960009	NaN	3975833.679515	3975834.19606548
78	23	0	0	90	36.1581920903955	36.241610738255	8	0.266683232039213	2	7	6	NaN	2	3	0.0189654617291481	0	1	NaN	277	5	25	2	120	220	320	NaN	520	0.376402684021741	2	1	NaN	3975835.4630762	NaN	3975836.446461	3975836.96300712
78	23	0	0	90	36.1581920903955	36.241610738255	14	0.466695656068623	2	9	6	NaN	2	3	0.0189654617291481	0	1	NaN	278	5	26	2	120	220	320	NaN	520	0.556350068189204	1	0	NaN	3975838.1466532	NaN	3975839.1300561	3975839.64660273
78	23	0	0	90	36.1581920903955	36.241610738255	18	0.60003727208823	2	8	5	NaN	2	4	0.0189654617291481	0	1	NaN	279	5	27	2	120	220	320	NaN	520	0.345728220418096	1	0	NaN	3975841.0136239	NaN	3975841.9970103	3975842.51355688
78	23	0	0	90	36.1581920903955	36.241610738255	20	0.666708080098033	2	2	5	NaN	1	5	0.0189654617291481	0	1	NaN	280	5	28	2	120	220	320	NaN	520	0.359672568272799	2	0	NaN	3975843.6639093	NaN	3975844.6472633	3975845.16380583
78	23	0	0	90	36.1581920903955	36.241610738255	9	0.300018636044115	2	8	2	NaN	2	4	0.0189654617291481	0	1	NaN	281	5	29	2	120	220	320	NaN	520	0.444411320611835	1	0	NaN	3975846.3307816	NaN	3975847.3142158	3975847.83074378
78	23	0	0	90	36.1581920903955	36.241610738255	14	0.466695656068623	2	7	2	NaN	2	4	0.0189654617291481	0	1	NaN	282	5	30	2	120	220	320	NaN	520	0.294354720972478	2	1	NaN	3975849.0810841	NaN	3975850.0645178	3975850.58101108
78	23	0	0	90	36.1581920903955	36.241610738255	14	0.466695656068623	2	1	5	NaN	1	3	0.0189654617291481	0	1	NaN	283	5	31	2	120	220	320	NaN	520	1.47755846800283	2	0	NaN	3975851.6979987	NaN	3975852.6813862	3975853.19793573
78	23	0	0	90	36.1581920903955	36.241610738255	7	0.233347828034312	2	12	2	NaN	2	3	0.0189654617291481	0	1	NaN	284	5	32	2	120	220	320	NaN	520	0.333158367779106	2	1	NaN	3975855.4983612	NaN	3975856.4817583	3975856.99830033
78	23	0	0	90	36.1581920903955	36.241610738255	9	0.300018636044115	2	3	1	NaN	1	5	0.0189654617291481	0	1	NaN	285	5	33	2	120	220	320	NaN	520	0.210751068312675	2	0	NaN	3975858.1486315	NaN	3975859.1320489	3975859.64856203
78	23	0	0	90	36.1581920903955	36.241610738255	6	0.20001242402941	2	4	2	NaN	1	5	0.0189654617291481	0	1	NaN	286	5	34	2	120	220	320	NaN	520	0.246013667900115	1	1	NaN	3975860.6653927	NaN	3975861.6489297	3975862.16548393
78	23	0	0	90	36.1581920903955	36.241610738255	24	0.80004969611764	2	8	6	NaN	2	5	0.0189654617291481	0	1	NaN	287	5	35	2	120	220	320	NaN	520	0.262731020804495	2	1	NaN	3975863.2324557	NaN	3975864.2158563	3975864.73240628
78	23	0	0	90	36.1581920903955	36.241610738255	8	0.266683232039213	2	12	4	NaN	2	5	0.0189654617291481	0	1	NaN	288	5	36	2	120	220	320	NaN	520	0.2794747678563	1	0	NaN	3975865.8160673	NaN	3975866.7994539	3975867.31598323
78	23	0	0	90	36.1581920903955	36.241610738255	16	0.533366464078426	2	3	1	NaN	1	3	0.0189654617291481	0	1	NaN	289	5	37	2	120	220	320	NaN	520	0.311039668507874	2	0	NaN	3975868.4163086	NaN	3975869.3997294	3975869.91623753
78	23	0	0	90	36.1581920903955	36.241610738255	7	0.233347828034312	2	3	4	NaN	1	3	0.0189654617291481	0	1	NaN	290	5	38	2	120	220	320	NaN	520	0.318340668454766	2	0	NaN	3975871.0332114	NaN	3975872.016615	3975872.53316393
78	23	0	0	90	36.1581920903955	36.241610738255	19	0.633372676093131	2	10	3	NaN	2	5	0.0189654617291481	0	1	NaN	291	5	39	2	120	220	320	NaN	520	0.276420320849866	1	0	NaN	3975873.6668304	NaN	3975874.6502159	3975875.16676418
78	23	0	0	90	36.1581920903955	36.241610738255	22	0.733378888107836	2	3	5	NaN	1	4	0.0189654617291481	0	1	NaN	292	5	40	2	120	220	320	NaN	520	0.252153068315238	1	1	NaN	3975876.2670659	NaN	3975877.2504477	3975877.76701283
78	23	0	0	90	36.1581920903955	36.241610738255	15	0.500031060073525	2	2	3	NaN	1	4	0.0189654617291481	0	1	NaN	293	5	41	2	120	220	320	NaN	520	0.245746815577149	1	1	NaN	3975878.8339934	NaN	3975879.8173882	3975880.33392818
78	23	0	0	90	36.1581920903955	36.241610738255	15	0.500031060073525	2	1	3	NaN	1	5	0.0189654617291481	0	1	NaN	294	5	42	2	120	220	320	NaN	520	0.35934716835618	2	0	NaN	3975881.3842513	NaN	3975882.3676786	3975882.88417373
78	23	0	0	90	36.1581920903955	36.241610738255	25	0.833385100122541	2	1	4	NaN	1	5	0.0189654617291481	0	1	NaN	295	5	43	2	120	220	320	NaN	520	0.0103918206878006	2	0	NaN	3975884.0511731	NaN	3975885.0345702	3975885.55111118
78	23	0	0	90	36.1581920903955	36.241610738255	25	0.833385100122541	2	2	6	NaN	1	5	0.0189654617291481	0	1	NaN	296	5	44	2	120	220	320	NaN	520	0.566838420461863	1	1	NaN	3975886.3847224	NaN	3975887.3681291	3975887.88467458
78	23	0	0	90	36.1581920903955	36.241610738255	10	0.333354040049016	2	1	1	NaN	1	4	0.0189654617291481	0	1	NaN	297	5	45	2	120	220	320	NaN	520	0.0104568679817021	1	1	NaN	3975889.2683459	NaN	3975890.2517318	3975890.76828433
78	23	0	0	90	36.1581920903955	36.241610738255	17	0.566701868083328	2	12	2	NaN	2	4	0.0189654617291481	0	1	NaN	298	5	46	2	120	220	320	NaN	520	0.0142032154835761	2	1	NaN	3975891.5852624	NaN	3975892.5687434	3975893.08517558
78	23	0	0	90	36.1581920903955	36.241610738255	11	0.366689444053918	2	2	3	NaN	1	3	0.0189654617291481	0	1	NaN	299	5	47	2	120	220	320	NaN	520	0.400850068312138	2	0	NaN	3975893.9188183	NaN	3975894.9022047	3975895.41874153
78	23	0	0	90	36.1581920903955	36.241610738255	18	0.60003727208823	2	9	2	NaN	2	5	0.0189654617291481	0	1	NaN	300	5	48	2	120	220	320	NaN	520	0.395480568055063	1	0	NaN	3975896.6357357	NaN	3975897.6191369	3975898.13568303
78	23	0	0	90	36.1581920903955	36.241610738255	16	0.533366464078426	2	3	2	NaN	1	5	0.0189654617291481	0	1	NaN	301	5	49	2	120	220	320	NaN	520	0.286782968323678	1	1	NaN	3975899.3526751	NaN	3975900.3360513	3975900.85260693
78	23	0	0	90	36.1581920903955	36.241610738255	25	0.833385100122541	2	10	2	NaN	2	4	0.0189654617291481	0	1	NaN	302	5	50	2	120	220	320	NaN	520	0.262646178714931	2	1	NaN	3975901.9529162	NaN	3975902.9362946	3975903.45287082
78	23	0	0	90	36.1581920903955	36.241610738255	24	0.80004969611764	2	8	5	NaN	2	5	0.0189654617291481	0	1	NaN	303	5	51	2	120	220	320	NaN	520	0.294978520832956	2	1	NaN	3975904.5365164	NaN	3975905.519917	3975906.03646198
78	23	0	0	90	36.1581920903955	36.241610738255	7	0.233347828034312	2	9	3	NaN	2	5	0.0189654617291481	0	1	NaN	304	5	52	2	120	220	320	NaN	520	0.142034368123859	1	0	NaN	3975907.1534367	NaN	3975908.1368362	3975908.65337503
78	23	0	0	90	36.1581920903955	36.241610738255	7	0.233347828034312	2	10	3	NaN	2	5	0.0189654617291481	0	1	NaN	305	5	53	2	120	220	320	NaN	520	0.315677768085152	2	1	NaN	3975909.6035399	NaN	3975910.5870623	3975911.10361393
78	23	0	0	90	36.1581920903955	36.241610738255	9	0.300018636044115	2	4	4	NaN	1	5	0.0189654617291481	0	1	NaN	306	5	54	2	120	220	320	NaN	520	0.266079341992736	1	1	NaN	3975912.2372605	NaN	3975913.2206512	3975913.73721176
78	23	0	0	90	36.1581920903955	36.241610738255	10	0.333354040049016	2	8	4	NaN	2	4	0.0189654617291481	0	1	NaN	307	5	55	2	120	220	320	NaN	520	0.322824842296541	2	1	NaN	3975914.8208719	NaN	3975915.8042278	3975916.32080466
78	23	0	0	90	36.1581920903955	36.241610738255	8	0.266683232039213	2	4	1	NaN	1	5	0.0189654617291481	0	1	NaN	308	5	56	2	120	220	320	NaN	520	0.329250320792198	2	0	NaN	3975917.454337	NaN	3975918.4379111	3975918.95438818
78	23	0	0	90	36.1581920903955	36.241610738255	10	0.333354040049016	2	6	4	NaN	1	5	0.0189654617291481	0	1	NaN	309	5	57	2	120	220	320	NaN	520	0.582573068328202	1	1	NaN	3975920.1047036	NaN	3975921.088129	3975921.60464733
78	23	0	0	90	36.1581920903955	36.241610738255	12	0.40002484805882	2	7	4	NaN	2	4	0.0189654617291481	0	1	NaN	310	5	58	2	120	220	320	NaN	520	0.49136121571064	2	1	NaN	3975922.9883112	NaN	3975923.9717559	3975924.48826258
78	23	0	0	90	36.1581920903955	36.241610738255	19	0.633372676093131	2	9	6	NaN	2	4	0.0189654617291481	0	1	NaN	311	5	59	2	120	220	320	NaN	520	0.266747162677348	2	1	NaN	3975925.7886052	NaN	3975926.7719964	3975927.28853354
78	23	0	0	90	36.1581920903955	36.241610738255	9	0.300018636044115	2	2	4	NaN	1	3	0.0189654617291481	0	1	NaN	312	5	60	2	120	220	320	NaN	520	0.347275420557708	1	1	NaN	3975928.3721767	NaN	3975929.3556253	3975929.87212978
78	23	0	0	90	36.1581920903955	36.241610738255	8	0.266683232039213	2	9	1	NaN	2	4	0.0189654617291481	0	1	NaN	313	5	61	2	120	220	320	NaN	520	0.360052562784404	1	0	NaN	3975931.0391256	NaN	3975932.0225124	3975932.53905244
78	23	0	0	90	36.1581920903955	36.241610738255	19	0.633372676093131	2	3	6	NaN	1	4	0.0189654617291481	0	1	NaN	314	5	62	2	120	220	320	NaN	520	0.189232220407575	2	0	NaN	3975933.7058966	NaN	3975934.6894271	3975935.20599258
78	23	0	0	90	36.1581920903955	36.241610738255	17	0.566701868083328	2	6	4	NaN	1	5	0.0189654617291481	0	1	NaN	315	5	63	2	120	220	320	NaN	520	0.0250545423477888	2	0	NaN	3975936.2062122	NaN	3975937.1896722	3975937.70623716
78	23	0	0	90	36.1581920903955	36.241610738255	12	0.40002484805882	2	1	6	NaN	1	4	0.0189654617291481	0	1	NaN	316	6	1	2	120	220	320	NaN	520	0.288348720874637	2	0	NaN	3976039.583127	NaN	3976040.5665049	3976041.08305118
78	23	0	0	90	36.1581920903955	36.241610738255	12	0.40002484805882	2	12	5	NaN	2	4	0.0189654617291481	0	1	NaN	317	6	2	2	120	220	320	NaN	520	0.320278615690768	1	0	NaN	3976042.1832668	NaN	3976043.1667883	3976043.68329418
78	23	0	0	90	36.1581920903955	36.241610738255	11	0.366689444053918	2	11	3	NaN	2	4	0.0189654617291481	0	1	NaN	318	6	3	2	120	220	320	NaN	520	0.214973763097078	2	1	NaN	3976044.8169683	NaN	3976045.8003465	3976046.31688984
78	23	0	0	90	36.1581920903955	36.241610738255	16	0.533366464078426	2	5	1	NaN	1	3	0.0189654617291481	0	1	NaN	319	6	4	2	120	220	320	NaN	520	0.361074315849692	2	0	NaN	3976047.3505254	NaN	3976048.3339288	3976048.85046618
78	23	0	0	90	36.1581920903955	36.241610738255	7	0.233347828034312	2	10	4	NaN	2	4	0.0189654617291481	0	1	NaN	320	6	5	2	120	220	320	NaN	520	0.254078668076545	1	0	NaN	3976050.0174108	NaN	3976051.0008484	3976051.51739613
78	23	0	0	90	36.1581920903955	36.241610738255	14	0.466695656068623	2	11	6	NaN	2	3	0.0189654617291481	0	1	NaN	321	6	6	2	120	220	320	NaN	520	0.174951368011534	2	1	NaN	3976052.5843626	NaN	3976053.567769	3976054.08431473
78	23	0	0	90	36.1581920903955	36.241610738255	17	0.566701868083328	2	1	2	NaN	1	5	0.0189654617291481	0	1	NaN	322	6	7	2	120	220	320	NaN	520	0.24343416839838	1	1	NaN	3976055.0678266	NaN	3976056.0513513	3976056.56789553
78	23	0	0	90	36.1581920903955	36.241610738255	15	0.500031060073525	2	6	5	NaN	1	5	0.0189654617291481	0	1	NaN	323	6	8	2	120	220	320	NaN	520	0.236578994896263	2	0	NaN	3976057.6348789	NaN	3976058.6182986	3976059.13482251
78	23	0	0	90	36.1581920903955	36.241610738255	21	0.700043484102935	2	3	3	NaN	1	4	0.0189654617291481	0	1	NaN	324	6	9	2	120	220	320	NaN	520	0.374717268161476	1	1	NaN	3976060.1850484	NaN	3976061.1685	3976061.68506253
78	23	0	0	90	36.1581920903955	36.241610738255	17	0.566701868083328	2	1	2	NaN	1	4	0.0189654617291481	0	1	NaN	325	6	10	2	120	220	320	NaN	520	0.114789468236268	1	1	NaN	3976062.8687095	NaN	3976063.8521087	3976064.36866653
78	23	0	0	90	36.1581920903955	36.241610738255	18	0.60003727208823	2	5	4	NaN	1	4	0.0189654617291481	0	1	NaN	326	6	11	2	120	220	320	NaN	520	0.281290167942643	2	0	NaN	3976065.3022866	NaN	3976066.2856906	3976066.80222823
78	23	0	0	90	36.1581920903955	36.241610738255	20	0.666708080098033	2	1	6	NaN	1	3	0.0189654617291481	0	1	NaN	327	6	12	2	120	220	320	NaN	520	0.761115115601569	2	0	NaN	3976067.9025479	NaN	3976068.8859377	3976069.40250308
78	23	0	0	90	36.1581920903955	36.241610738255	7	0.233347828034312	2	3	4	NaN	1	4	0.0189654617291481	0	1	NaN	328	6	13	2	120	220	320	NaN	520	0.382062268443406	2	0	NaN	3976070.9695214	NaN	3976071.9528961	3976072.46947813
78	23	0	0	90	36.1581920903955	36.241610738255	18	0.60003727208823	2	7	2	NaN	2	3	0.0189654617291481	0	1	NaN	329	6	14	2	120	220	320	NaN	520	0.273760867770761	1	0	NaN	3976073.6697751	NaN	3976074.6531695	3976075.16972223
78	23	0	0	90	36.1581920903955	36.241610738255	16	0.533366464078426	2	1	5	NaN	1	4	0.0189654617291481	0	1	NaN	330	6	15	2	120	220	320	NaN	520	0.346019621007144	2	0	NaN	3976076.2533929	NaN	3976077.2367799	3976077.75330528
78	23	0	0	90	36.1581920903955	36.241610738255	18	0.60003727208823	2	8	5	NaN	2	4	0.0189654617291481	0	1	NaN	331	6	16	2	120	220	320	NaN	520	0.31960856821388	1	0	NaN	3976078.9202924	NaN	3976079.9036893	3976080.42024093
78	23	0	0	90	36.1581920903955	36.241610738255	8	0.266683232039213	2	5	6	NaN	1	5	0.0189654617291481	0	1	NaN	332	6	17	2	120	220	320	NaN	520	0.245947720482945	2	0	NaN	3976081.5539067	NaN	3976082.5372608	3976083.05382778
78	23	0	0	90	36.1581920903955	36.241610738255	20	0.666708080098033	2	11	3	NaN	2	4	0.0189654617291481	0	1	NaN	333	6	18	2	120	220	320	NaN	520	0.327048121020198	2	1	NaN	3976084.1207986	NaN	3976085.1041952	3976085.62075108
78	23	0	0	90	36.1581920903955	36.241610738255	19	0.633372676093131	2	4	6	NaN	1	5	0.0189654617291481	0	1	NaN	334	6	19	2	120	220	320	NaN	520	0.308978368062526	2	0	NaN	3976086.7544007	NaN	3976087.7377867	3976088.25433613
78	23	0	0	90	36.1581920903955	36.241610738255	9	0.300018636044115	2	11	3	NaN	2	4	0.0189654617291481	0	1	NaN	335	6	20	2	120	220	320	NaN	520	0.0104294205084443	2	1	NaN	3976089.3711837	NaN	3976090.3547009	3976090.87126718
78	23	0	0	90	36.1581920903955	36.241610738255	23	0.766714292112738	2	11	3	NaN	2	4	0.0189654617291481	0	1	NaN	336	6	21	2	120	220	320	NaN	520	0.0104055209085345	2	1	NaN	3976091.7048821	NaN	3976092.688287	3976093.20483518
78	23	0	0	90	36.1581920903955	36.241610738255	24	0.80004969611764	2	7	5	NaN	2	3	0.0189654617291481	0	1	NaN	337	6	22	2	120	220	320	NaN	520	0.281591968145221	1	0	NaN	3976094.2217645	NaN	3976095.205194	3976095.72173573
78	23	0	0	90	36.1581920903955	36.241610738255	25	0.833385100122541	2	9	6	NaN	2	3	0.0189654617291481	0	1	NaN	338	6	23	2	120	220	320	NaN	520	0.249792668037117	1	0	NaN	3976096.8220557	NaN	3976097.8054386	3976098.32199033
78	23	0	0	90	36.1581920903955	36.241610738255	11	0.366689444053918	2	7	2	NaN	2	5	0.0189654617291481	0	1	NaN	339	6	24	2	120	220	320	NaN	520	0.41855026781559	1	0	NaN	3976099.3889571	NaN	3976100.3723647	3976100.88892363
78	23	0	0	90	36.1581920903955	36.241610738255	15	0.500031060073525	2	7	5	NaN	2	5	0.0189654617291481	0	1	NaN	340	6	25	2	120	220	320	NaN	520	0.0104238679632545	2	1	NaN	3976102.122424	NaN	3976103.1059699	3976103.62251293
78	23	0	0	90	36.1581920903955	36.241610738255	22	0.733378888107836	2	11	1	NaN	2	3	0.0189654617291481	0	1	NaN	341	6	26	2	120	220	320	NaN	520	0.20010697375983	2	1	NaN	3976104.4394803	NaN	3976105.4228347	3976105.93940833
78	23	0	0	90	36.1581920903955	36.241610738255	24	0.80004969611764	2	10	2	NaN	2	5	0.0189654617291481	0	1	NaN	342	6	27	2	120	220	320	NaN	520	0.30750832054764	1	0	NaN	3976106.9563892	NaN	3976107.939782	3976108.45632278
78	23	0	0	90	36.1581920903955	36.241610738255	13	0.433360252063721	2	9	4	NaN	2	5	0.0189654617291481	0	1	NaN	343	6	28	2	120	220	320	NaN	520	0.722152068279684	1	0	NaN	3976109.5731618	NaN	3976110.5566837	3976111.07325023
78	23	0	0	90	36.1581920903955	36.241610738255	8	0.266683232039213	2	8	3	NaN	2	4	0.0189654617291481	0	1	NaN	344	6	29	2	120	220	320	NaN	520	0.0103934206999838	2	1	NaN	3976112.6069645	NaN	3976113.590335	3976114.10688648
78	23	0	0	90	36.1581920903955	36.241610738255	23	0.766714292112738	2	10	2	NaN	2	3	0.0189654617291481	0	1	NaN	345	6	30	2	120	220	320	NaN	520	0.0104099684394896	1	0	NaN	3976114.9238391	NaN	3976115.9072361	3976116.42377263
78	23	0	0	90	36.1581920903955	36.241610738255	13	0.433360252063721	2	6	2	NaN	1	3	0.0189654617291481	0	1	NaN	346	6	31	2	120	220	320	NaN	520	0.286086836829782	1	1	NaN	3976117.257305	NaN	3976118.2408136	3976118.75734716
78	23	0	0	90	36.1581920903955	36.241610738255	9	0.300018636044115	2	7	5	NaN	2	4	0.0189654617291481	0	1	NaN	347	6	32	2	120	220	320	NaN	520	0.318087315652519	1	0	NaN	3976119.8576488	NaN	3976120.8410421	3976121.35758538
78	23	0	0	90	36.1581920903955	36.241610738255	6	0.20001242402941	2	3	2	NaN	1	3	0.0189654617291481	0	1	NaN	348	6	33	2	120	220	320	NaN	520	0.276364967692643	2	0	NaN	3976122.4910943	NaN	3976123.474637	3976123.99117613
78	23	0	0	90	36.1581920903955	36.241610738255	7	0.233347828034312	2	1	5	NaN	1	5	0.0189654617291481	0	1	NaN	349	6	34	2	120	220	320	NaN	520	0.300729668233544	2	0	NaN	3976125.2747038	NaN	3976126.2582367	3976126.77478563
78	23	0	0	90	36.1581920903955	36.241610738255	11	0.366689444053918	2	9	6	NaN	2	4	0.0189654617291481	0	1	NaN	350	6	35	2	120	220	320	NaN	520	0.267821267712861	1	0	NaN	3976127.891774	NaN	3976128.8751508	3976129.39171663
78	23	0	0	90	36.1581920903955	36.241610738255	13	0.433360252063721	2	8	5	NaN	2	5	0.0189654617291481	0	1	NaN	351	6	36	2	120	220	320	NaN	520	0.292618067935109	2	1	NaN	3976130.4753612	NaN	3976131.4587449	3976131.97530533
78	23	0	0	90	36.1581920903955	36.241610738255	16	0.533366464078426	2	10	5	NaN	2	4	0.0189654617291481	0	1	NaN	352	6	37	2	120	220	320	NaN	520	0.308247268199921	2	1	NaN	3976133.0756333	NaN	3976134.0590064	3976134.57555233
78	23	0	0	90	36.1581920903955	36.241610738255	0	0	1	4	5	NaN	1	4	0.0189654617291481	0	1	NaN	353	6	38	2	110	210	310	NaN	510	0.283175067976117	2	0	NaN	3976135.6925333	NaN	3976136.6759197	3976137.19247763
78	23	0	0	90	36.1581920903955	36.241610738255	6	0.20001242402941	2	7	4	NaN	2	4	0.0189654617291481	0	1	NaN	354	6	39	2	120	220	320	NaN	520	0.0104248682036996	1	0	NaN	3976138.2927689	NaN	3976139.2761756	3976139.79273013
78	23	0	0	90	36.1581920903955	36.241610738255	22	0.733378888107836	2	4	1	NaN	1	3	0.0189654617291481	0	1	NaN	355	6	40	2	120	220	320	NaN	520	0.0541196153499186	1	1	NaN	3976140.6096829	NaN	3976141.5930874	3976142.10962598
78	23	0	0	90	36.1581920903955	36.241610738255	10	0.333354040049016	2	11	6	NaN	2	4	0.0189654617291481	0	1	NaN	356	6	41	2	120	220	320	NaN	520	0.0104090683162212	1	0	NaN	3976143.0099255	NaN	3976143.993319	3976144.50985893
78	23	0	0	90	36.1581920903955	36.241610738255	24	0.80004969611764	2	5	6	NaN	1	4	0.0189654617291481	0	1	NaN	357	6	42	2	120	220	320	NaN	520	0.145041668321937	2	0	NaN	3976145.3268068	NaN	3976146.3102033	3976146.82675083
78	23	0	0	90	36.1581920903955	36.241610738255	23	0.766714292112738	2	10	1	NaN	2	3	0.0189654617291481	0	1	NaN	358	6	43	2	120	220	320	NaN	520	0.270449921023101	2	1	NaN	3976147.7770546	NaN	3976148.7604533	3976149.27700418
78	23	0	0	90	36.1581920903955	36.241610738255	13	0.433360252063721	2	2	2	NaN	1	5	0.0189654617291481	0	1	NaN	359	6	44	2	120	220	320	NaN	520	1.1748373680748	2	0	NaN	3976150.3606595	NaN	3976151.3440311	3976151.86058913
78	23	0	0	90	36.1581920903955	36.241610738255	7	0.233347828034312	2	9	2	NaN	2	4	0.0189654617291481	0	1	NaN	360	6	45	2	120	220	320	NaN	520	0.0273979678750038	2	1	NaN	3976153.8441833	NaN	3976154.8277222	3976155.34426173
78	23	0	0	90	36.1581920903955	36.241610738255	8	0.266683232039213	2	1	5	NaN	1	4	0.0189654617291481	0	1	NaN	361	6	46	2	120	220	320	NaN	520	0.0104108680970967	1	1	NaN	3976156.8445386	NaN	3976157.8280023	3976158.34456173
78	23	0	0	90	36.1581920903955	36.241610738255	0	0	1	4	2	NaN	1	5	0.0189654617291481	0	1	NaN	362	6	47	2	110	210	310	NaN	510	0.875681221019477	1	1	NaN	3976159.4281636	NaN	3976160.4115943	3976160.92814888
78	23	0	0	90	36.1581920903955	36.241610738255	19	0.633372676093131	2	11	6	NaN	2	3	0.0189654617291481	0	1	NaN	363	6	48	2	120	220	320	NaN	520	0.619135820772499	1	0	NaN	3976162.6285145	NaN	3976163.6119036	3976164.12845858
78	23	0	0	90	36.1581920903955	36.241610738255	9	0.300018636044115	2	1	1	NaN	1	5	0.0189654617291481	0	1	NaN	364	6	49	2	120	220	320	NaN	520	0.0103948209434748	2	0	NaN	3976165.5620323	NaN	3976166.5455612	3976167.06208198
78	23	0	0	90	36.1581920903955	36.241610738255	19	0.633372676093131	2	3	6	NaN	1	5	0.0189654617291481	0	1	NaN	365	6	50	2	120	220	320	NaN	520	0.128577267751098	1	1	NaN	3976167.8790222	NaN	3976168.8624694	3976169.37896923
78	23	0	0	90	36.1581920903955	36.241610738255	22	0.733378888107836	2	2	4	NaN	1	4	0.0189654617291481	0	1	NaN	366	6	51	2	120	220	320	NaN	520	0.270698167849332	1	1	NaN	3976170.3292531	NaN	3976171.3126625	3976171.82920673
78	23	0	0	90	36.1581920903955	36.241610738255	24	0.80004969611764	2	1	4	NaN	1	4	0.0189654617291481	0	1	NaN	367	6	52	2	120	220	320	NaN	520	0.286840615328401	1	1	NaN	3976172.9128491	NaN	3976173.8962557	3976174.41279158
78	23	0	0	90	36.1581920903955	36.241610738255	9	0.300018636044115	2	3	1	NaN	1	5	0.0189654617291481	0	1	NaN	368	6	53	2	120	220	320	NaN	520	0.0104215680621564	2	0	NaN	3976175.5130971	NaN	3976176.4965106	3976177.01305243
78	23	0	0	90	36.1581920903955	36.241610738255	10	0.333354040049016	2	12	3	NaN	2	4	0.0189654617291481	0	1	NaN	369	6	54	2	120	220	320	NaN	520	0.33766441559419	2	1	NaN	3976177.8300084	NaN	3976178.8133621	3976179.32994478
78	23	0	0	90	36.1581920903955	36.241610738255	8	0.266683232039213	2	2	1	NaN	1	4	0.0189654617291481	0	1	NaN	370	6	55	2	120	220	320	NaN	520	0.255519462749362	1	1	NaN	3976180.4802563	NaN	3976181.463682	3976181.98020154
78	23	0	0	90	36.1581920903955	36.241610738255	10	0.333354040049016	2	3	3	NaN	1	3	0.0189654617291481	0	1	NaN	371	6	56	2	120	220	320	NaN	520	0.296888567972928	1	1	NaN	3976183.0471816	NaN	3976184.0305768	3976184.54712973
78	23	0	0	90	36.1581920903955	36.241610738255	20	0.666708080098033	2	11	5	NaN	2	4	0.0189654617291481	0	1	NaN	372	6	57	2	120	220	320	NaN	520	0.487824320793152	2	1	NaN	3976185.6641866	NaN	3976186.6474831	3976187.16405828
78	23	0	0	90	36.1581920903955	36.241610738255	9	0.300018636044115	2	5	2	NaN	1	5	0.0189654617291481	0	1	NaN	373	6	58	2	120	220	320	NaN	520	0.0103651266545057	1	1	NaN	3976188.464377	NaN	3976189.4478105	3976189.96432137
78	23	0	0	90	36.1581920903955	36.241610738255	18	0.60003727208823	2	4	3	NaN	1	4	0.0189654617291481	0	1	NaN	374	6	59	2	120	220	320	NaN	520	0.353574336972088	1	1	NaN	3976190.797952	NaN	3976191.7813455	3976192.29789086
78	23	0	0	90	36.1581920903955	36.241610738255	16	0.533366464078426	2	6	3	NaN	1	3	0.0189654617291481	0	1	NaN	375	6	60	2	120	220	320	NaN	520	0.406760320998728	2	0	NaN	3976193.4648712	NaN	3976194.448277	3976194.96482248
78	23	0	0	90	36.1581920903955	36.241610738255	12	0.40002484805882	2	10	3	NaN	2	5	0.0189654617291481	0	1	NaN	376	6	61	2	120	220	320	NaN	520	0.346174963284284	2	1	NaN	3976196.1816605	NaN	3976197.1651995	3976197.68174184
78	23	0	0	90	36.1581920903955	36.241610738255	10	0.333354040049016	2	5	1	NaN	1	4	0.0189654617291481	0	1	NaN	377	6	62	2	120	220	320	NaN	520	0.0104095679707825	1	1	NaN	3976198.8320075	NaN	3976199.8154534	3976200.33200673
78	23	0	0	90	36.1581920903955	36.241610738255	11	0.366689444053918	2	12	1	NaN	2	4	0.0189654617291481	0	1	NaN	378	6	63	2	120	220	320	NaN	520	0.314919768366963	2	1	NaN	3976201.1489774	NaN	3976202.13235	3976202.64889933
78	23	0	0	90	36.1581920903955	36.241610738255	23	0.766714292112738	2	3	1	NaN	1	3	0.0189654617291481	0	1	NaN	379	7	1	2	120	220	320	NaN	520	0.318606768269092	2	0	NaN	3976298.6252005	NaN	3976299.608599	3976300.12513253
78	23	0	0	90	36.1581920903955	36.241610738255	7	0.233347828034312	2	7	1	NaN	2	5	0.0189654617291481	0	1	NaN	380	7	2	2	120	220	320	NaN	520	0.30908641545102	2	1	NaN	3976301.2587819	NaN	3976302.2421813	3976302.75872318
78	23	0	0	90	36.1581920903955	36.241610738255	14	0.466695656068623	2	11	6	NaN	2	5	0.0189654617291481	0	1	NaN	381	7	3	2	120	220	320	NaN	520	0.228093768004328	1	0	NaN	3976303.8757139	NaN	3976304.8591203	3976305.37565173
78	23	0	0	90	36.1581920903955	36.241610738255	21	0.700043484102935	2	2	5	NaN	1	5	0.0189654617291481	0	1	NaN	382	7	4	2	120	220	320	NaN	520	0.25443521514535	2	0	NaN	3976306.4092837	NaN	3976307.3926827	3976307.90923688
78	23	0	0	90	36.1581920903955	36.241610738255	20	0.666708080098033	2	7	6	NaN	2	5	0.0189654617291481	0	1	NaN	383	7	5	2	120	220	320	NaN	520	0.199744468089193	2	1	NaN	3976308.9762157	NaN	3976309.959607	3976310.47615173
78	23	0	0	90	36.1581920903955	36.241610738255	17	0.566701868083328	2	10	6	NaN	2	5	0.0189654617291481	0	1	NaN	384	7	6	2	120	220	320	NaN	520	0.186738615389913	1	0	NaN	3976311.4931187	NaN	3976312.4765108	3976312.99306568
78	23	0	0	90	36.1581920903955	36.241610738255	15	0.500031060073525	2	5	2	NaN	1	4	0.0189654617291481	0	1	NaN	385	7	7	2	120	220	320	NaN	520	0.270812768023461	1	1	NaN	3976313.9934088	NaN	3976314.9767729	3976315.49330713
78	23	0	0	90	36.1581920903955	36.241610738255	18	0.60003727208823	2	5	2	NaN	1	5	0.0189654617291481	0	1	NaN	386	7	8	2	120	220	320	NaN	520	0.247122489381582	1	1	NaN	3976316.5769482	NaN	3976317.560333	3976318.07691051
78	23	0	0	90	36.1581920903955	36.241610738255	9	0.300018636044115	2	11	1	NaN	2	5	0.0189654617291481	0	1	NaN	387	7	9	2	120	220	320	NaN	520	0.263820520602167	1	0	NaN	3976319.1439014	NaN	3976320.1272687	3976320.64381288
78	23	0	0	90	36.1581920903955	36.241610738255	22	0.733378888107836	2	10	1	NaN	2	4	0.0189654617291481	0	1	NaN	388	7	10	2	120	220	320	NaN	520	0.304799494333565	1	0	NaN	3976321.7274554	NaN	3976322.7108395	3976323.22741761
78	23	0	0	90	36.1581920903955	36.241610738255	15	0.500031060073525	2	9	5	NaN	2	3	0.0189654617291481	0	1	NaN	389	7	11	2	120	220	320	NaN	520	0.311826336663216	2	1	NaN	3976324.3444064	NaN	3976325.3278018	3976325.84433256
78	23	0	0	90	36.1581920903955	36.241610738255	21	0.700043484102935	2	3	4	NaN	1	3	0.0189654617291481	0	1	NaN	390	7	12	2	120	220	320	NaN	520	0.294590794946998	1	1	NaN	3976326.9612342	NaN	3976327.9447197	3976328.46126231
78	23	0	0	90	36.1581920903955	36.241610738255	10	0.333354040049016	2	3	6	NaN	1	4	0.0189654617291481	0	1	NaN	391	7	13	2	120	220	320	NaN	520	0.3106290679425	2	0	NaN	3976329.561572	NaN	3976330.5449643	3976331.06150473
78	23	0	0	90	36.1581920903955	36.241610738255	12	0.40002484805882	2	8	2	NaN	2	3	0.0189654617291481	0	1	NaN	392	7	14	2	120	220	320	NaN	520	0.261804763227701	2	1	NaN	3976332.1783589	NaN	3976333.1619198	3976333.67842394
78	23	0	0	90	36.1581920903955	36.241610738255	23	0.766714292112738	2	2	1	NaN	1	4	0.0189654617291481	0	1	NaN	393	7	15	2	120	220	320	NaN	520	0.358256268315017	2	0	NaN	3976334.7454023	NaN	3976335.7288023	3976336.24536333
78	23	0	0	90	36.1581920903955	36.241610738255	21	0.700043484102935	2	11	2	NaN	2	5	0.0189654617291481	0	1	NaN	394	7	16	2	120	220	320	NaN	520	0.29186631552875	1	0	NaN	3976337.4123297	NaN	3976338.3957281	3976338.91227948
78	23	0	0	90	36.1581920903955	36.241610738255	22	0.733378888107836	2	1	3	NaN	1	4	0.0189654617291481	0	1	NaN	395	7	17	2	120	220	320	NaN	520	0.274796920828521	2	0	NaN	3976340.0292685	NaN	3976341.0126573	3976341.52921028
78	23	0	0	90	36.1581920903955	36.241610738255	17	0.566701868083328	2	2	5	NaN	1	3	0.0189654617291481	0	1	NaN	396	7	18	2	120	220	320	NaN	520	0.30736826825887	2	0	NaN	3976342.6128439	NaN	3976343.5962365	3976344.11279363
78	23	0	0	90	36.1581920903955	36.241610738255	22	0.733378888107836	2	6	1	NaN	1	5	0.0189654617291481	0	1	NaN	397	7	19	2	120	220	320	NaN	520	0.297982268035412	1	1	NaN	3976345.2297897	NaN	3976346.2131704	3976346.72970753
78	23	0	0	90	36.1581920903955	36.241610738255	10	0.333354040049016	2	4	4	NaN	1	4	0.0189654617291481	0	1	NaN	398	7	20	2	120	220	320	NaN	520	0.30551896803081	1	1	NaN	3976347.8466898	NaN	3976348.8300856	3976349.34664183
78	23	0	0	90	36.1581920903955	36.241610738255	11	0.366689444053918	2	3	2	NaN	1	4	0.0189654617291481	0	1	NaN	399	7	21	2	120	220	320	NaN	520	0.272416615393013	1	1	NaN	3976350.4636536	NaN	3976351.4470137	3976351.96355658
78	23	0	0	90	36.1581920903955	36.241610738255	21	0.700043484102935	2	11	4	NaN	2	3	0.0189654617291481	0	1	NaN	400	7	22	2	120	220	320	NaN	520	1.76096216822043	2	1	NaN	3976353.0471953	NaN	3976354.0305954	3976354.54715383
78	23	0	0	90	36.1581920903955	36.241610738255	13	0.433360252063721	2	8	6	NaN	2	3	0.0189654617291481	0	1	NaN	401	7	23	2	120	220	320	NaN	520	0.541104668285698	2	1	NaN	3976357.1307857	NaN	3976358.1143419	3976358.63087523
78	23	0	0	90	36.1581920903955	36.241610738255	22	0.733378888107836	2	2	6	NaN	1	4	0.0189654617291481	0	1	NaN	402	7	24	2	120	220	320	NaN	520	0.328426721040159	2	0	NaN	3976360.4477992	NaN	3976361.4313355	3976361.94788048
78	23	0	0	90	36.1581920903955	36.241610738255	23	0.766714292112738	2	6	2	NaN	1	3	0.0189654617291481	0	1	NaN	403	7	25	2	120	220	320	NaN	520	0.270087342243642	1	1	NaN	3976363.0982035	NaN	3976364.0815864	3976364.59816126
78	23	0	0	90	36.1581920903955	36.241610738255	6	0.20001242402941	2	5	1	NaN	1	4	0.0189654617291481	0	1	NaN	404	7	26	2	120	220	320	NaN	520	0.438265720847994	1	1	NaN	3976365.6818052	NaN	3976366.6651799	3976367.18172198
78	23	0	0	90	36.1581920903955	36.241610738255	6	0.20001242402941	2	1	2	NaN	1	3	0.0189654617291481	0	1	NaN	405	7	27	2	120	220	320	NaN	520	0.447915367782116	2	0	NaN	3976368.4320643	NaN	3976369.415449	3976369.93198683
78	23	0	0	90	36.1581920903955	36.241610738255	25	0.833385100122541	2	8	5	NaN	2	5	0.0189654617291481	0	1	NaN	406	7	28	2	120	220	320	NaN	520	0.217857968062162	1	0	NaN	3976371.1823125	NaN	3976372.1657019	3976372.68225643
78	23	0	0	90	36.1581920903955	36.241610738255	19	0.633372676093131	2	2	6	NaN	1	4	0.0189654617291481	0	1	NaN	407	7	29	2	120	220	320	NaN	520	0.31644936837256	1	1	NaN	3976373.7158985	NaN	3976374.6992974	3976375.21583683
78	23	0	0	90	36.1581920903955	36.241610738255	17	0.566701868083328	2	5	3	NaN	1	4	0.0189654617291481	0	1	NaN	408	7	30	2	120	220	320	NaN	520	0.354507715441287	2	0	NaN	3976376.3494909	NaN	3976377.3328774	3976377.84943458
78	23	0	0	90	36.1581920903955	36.241610738255	22	0.733378888107836	2	9	3	NaN	2	3	0.0189654617291481	0	1	NaN	409	7	31	2	120	220	320	NaN	520	0.303812441881746	2	1	NaN	3976379.0164087	NaN	3976379.9998406	3976380.51637316
78	23	0	0	90	36.1581920903955	36.241610738255	22	0.733378888107836	2	8	3	NaN	2	3	0.0189654617291481	0	1	NaN	410	7	32	2	120	220	320	NaN	520	0.294793467968702	1	0	NaN	3976381.6333496	NaN	3976382.6167492	3976383.13329413
78	23	0	0	90	36.1581920903955	36.241610738255	11	0.366689444053918	2	6	3	NaN	1	5	0.0189654617291481	0	1	NaN	411	7	33	2	120	220	320	NaN	520	0.342689468059689	1	1	NaN	3976384.2334698	NaN	3976385.2170028	3976385.73354023
78	23	0	0	90	36.1581920903955	36.241610738255	16	0.533366464078426	2	9	2	NaN	2	4	0.0189654617291481	0	1	NaN	412	7	34	2	120	220	320	NaN	520	0.30022026784718	1	0	NaN	3976386.8838658	NaN	3976387.8672676	3976388.38380113
78	23	0	0	90	36.1581920903955	36.241610738255	14	0.466695656068623	2	10	2	NaN	2	5	0.0189654617291481	0	1	NaN	413	7	35	2	120	220	320	NaN	520	0.379276242107153	1	0	NaN	3976389.5007924	NaN	3976390.484183	3976391.00073736
78	23	0	0	90	36.1581920903955	36.241610738255	20	0.666708080098033	2	5	5	NaN	1	5	0.0189654617291481	0	1	NaN	414	7	36	2	120	220	320	NaN	520	0.318837015423924	2	0	NaN	3976392.2009137	NaN	3976393.1844476	3976393.70098648
78	23	0	0	90	36.1581920903955	36.241610738255	18	0.60003727208823	2	7	2	NaN	2	3	0.0189654617291481	0	1	NaN	415	7	37	2	120	220	320	NaN	520	0.341631520539522	2	1	NaN	3976394.8346603	NaN	3976395.8180362	3976396.33458658
78	23	0	0	90	36.1581920903955	36.241610738255	24	0.80004969611764	2	11	2	NaN	2	4	0.0189654617291481	0	1	NaN	416	7	38	2	120	220	320	NaN	520	1.22693361528218	2	1	NaN	3976397.4849058	NaN	3976398.4682985	3976398.98483988
78	23	0	0	90	36.1581920903955	36.241610738255	20	0.666708080098033	2	7	6	NaN	2	5	0.0189654617291481	0	1	NaN	417	7	39	2	120	220	320	NaN	520	0.444619568064809	2	1	NaN	3976401.0352558	NaN	3976402.0186505	3976402.53518503
78	23	0	0	90	36.1581920903955	36.241610738255	18	0.60003727208823	2	12	5	NaN	2	4	0.0189654617291481	0	1	NaN	418	7	40	2	120	220	320	NaN	520	0.270794994663447	1	0	NaN	3976403.7855789	NaN	3976404.7689187	3976405.28546791
78	23	0	0	90	36.1581920903955	36.241610738255	15	0.500031060073525	2	7	4	NaN	2	3	0.0189654617291481	0	1	NaN	419	7	41	2	120	220	320	NaN	520	1.54277646820992	1	0	NaN	3976406.3691258	NaN	3976407.3525178	3976407.86904993
78	23	0	0	90	36.1581920903955	36.241610738255	19	0.633372676093131	2	5	3	NaN	1	4	0.0189654617291481	0	1	NaN	420	7	42	2	120	220	320	NaN	520	0.0104071679525077	2	0	NaN	3976410.2194774	NaN	3976411.2029351	3976411.71942113
78	23	0	0	90	36.1581920903955	36.241610738255	11	0.366689444053918	2	1	3	NaN	1	5	0.0189654617291481	0	1	NaN	421	7	43	2	120	220	320	NaN	520	0.390856000129133	1	1	NaN	3976412.5530329	NaN	3976413.5364185	3976414.0529774
78	23	0	0	90	36.1581920903955	36.241610738255	8	0.266683232039213	2	10	1	NaN	2	4	0.0189654617291481	0	1	NaN	422	7	44	2	120	220	320	NaN	520	0.32255586842075	2	1	NaN	3976415.2531675	NaN	3976416.2366841	3976416.75326553
78	23	0	0	90	36.1581920903955	36.241610738255	7	0.233347828034312	2	4	2	NaN	1	5	0.0189654617291481	0	1	NaN	423	7	45	2	120	220	320	NaN	520	0.32896512048319	1	1	NaN	3976417.8869309	NaN	3976418.8703201	3976419.38685268
78	23	0	0	90	36.1581920903955	36.241610738255	10	0.333354040049016	2	7	5	NaN	2	3	0.0189654617291481	0	1	NaN	424	7	46	2	120	220	320	NaN	520	0.311795089859515	1	0	NaN	3976420.5204934	NaN	3976421.5038898	3976422.02044071
78	23	0	0	90	36.1581920903955	36.241610738255	15	0.500031060073525	2	8	4	NaN	2	5	0.0189654617291481	0	1	NaN	425	7	47	2	120	220	320	NaN	520	0.646413920912892	2	1	NaN	3976423.1540942	NaN	3976424.1374826	3976424.65403618
78	23	0	0	90	36.1581920903955	36.241610738255	16	0.533366464078426	2	11	2	NaN	2	5	0.0189654617291481	0	1	NaN	426	7	48	2	120	220	320	NaN	520	0.175034494604915	2	1	NaN	3976426.1210732	NaN	3976427.1044325	3976427.62099791
78	23	0	0	90	36.1581920903955	36.241610738255	6	0.20001242402941	2	4	3	NaN	1	5	0.0189654617291481	0	1	NaN	427	7	49	2	120	220	320	NaN	520	0.379654068499804	1	1	NaN	3976428.6045571	NaN	3976429.5880205	3976430.10455893
78	23	0	0	90	36.1581920903955	36.241610738255	20	0.666708080098033	2	8	6	NaN	2	3	0.0189654617291481	0	1	NaN	428	7	50	2	120	220	320	NaN	520	0.271158673800528	1	0	NaN	3976431.3048815	NaN	3976432.2882812	3976432.80482883
78	23	0	0	90	36.1581920903955	36.241610738255	17	0.566701868083328	2	3	6	NaN	1	3	0.0189654617291481	0	1	NaN	429	7	51	2	120	220	320	NaN	520	0.311651600059122	1	1	NaN	3976433.8883249	NaN	3976434.8718771	3976435.3884092
78	23	0	0	90	36.1581920903955	36.241610738255	23	0.766714292112738	2	12	6	NaN	2	5	0.0189654617291481	0	1	NaN	430	7	52	2	120	220	320	NaN	520	0.342341315466911	2	1	NaN	3976436.5221243	NaN	3976437.5054477	3976438.02200008
78	23	0	0	90	36.1581920903955	36.241610738255	18	0.60003727208823	2	3	1	NaN	1	3	0.0189654617291481	0	1	NaN	431	7	53	2	120	220	320	NaN	520	0.395847220905125	2	0	NaN	3976439.1723192	NaN	3976440.1557261	3976440.67226258
78	23	0	0	90	36.1581920903955	36.241610738255	25	0.833385100122541	2	11	2	NaN	2	4	0.0189654617291481	0	1	NaN	432	7	54	2	120	220	320	NaN	520	0.335726820398122	1	0	NaN	3976441.8725916	NaN	3976442.855985	3976443.37252768
78	23	0	0	90	36.1581920903955	36.241610738255	7	0.233347828034312	2	12	2	NaN	2	3	0.0189654617291481	0	1	NaN	433	7	55	2	120	220	320	NaN	520	0.421243567951024	1	0	NaN	3976444.5228676	NaN	3976445.5062477	3976446.02278833
78	23	0	0	90	36.1581920903955	36.241610738255	18	0.60003727208823	2	3	3	NaN	1	4	0.0189654617291481	0	1	NaN	434	7	56	2	120	220	320	NaN	520	0.735941820777953	2	0	NaN	3976447.2564583	NaN	3976448.2398443	3976448.75640158
78	23	0	0	90	36.1581920903955	36.241610738255	14	0.466695656068623	2	6	1	NaN	1	4	0.0189654617291481	0	1	NaN	435	7	57	2	120	220	320	NaN	520	0.949216968379915	1	1	NaN	3976450.3067451	NaN	3976451.2901351	3976451.80668923
78	23	0	0	90	36.1581920903955	36.241610738255	19	0.633372676093131	2	12	3	NaN	2	3	0.0189654617291481	0	1	NaN	436	7	58	2	120	220	320	NaN	520	0.342571668326855	1	0	NaN	3976453.873688	NaN	3976454.8571592	3976455.37371663
78	23	0	0	90	36.1581920903955	36.241610738255	9	0.300018636044115	2	5	4	NaN	1	5	0.0189654617291481	0	1	NaN	437	7	59	2	120	220	320	NaN	520	0.484065820463002	2	0	NaN	3976456.523897	NaN	3976457.5074258	3976458.02397908
78	23	0	0	90	36.1581920903955	36.241610738255	16	0.533366464078426	2	2	4	NaN	1	3	0.0189654617291481	0	1	NaN	438	7	60	2	120	220	320	NaN	520	0.324051667936146	2	0	NaN	3976459.324303	NaN	3976460.3077135	3976460.82424433
78	23	0	0	90	36.1581920903955	36.241610738255	11	0.366689444053918	2	3	6	NaN	1	4	0.0189654617291481	0	1	NaN	439	7	61	2	120	220	320	NaN	520	0.386301468126476	2	0	NaN	3976461.9578935	NaN	3976462.941287	3976463.45784083
78	23	0	0	90	36.1581920903955	36.241610738255	12	0.40002484805882	2	11	5	NaN	2	4	0.0189654617291481	0	1	NaN	440	7	62	2	120	220	320	NaN	520	0.0104139684699476	1	0	NaN	3976464.6581718	NaN	3976465.6415481	3976466.15809833
78	23	0	0	90	36.1581920903955	36.241610738255	19	0.633372676093131	2	6	1	NaN	1	3	0.0189654617291481	0	1	NaN	441	7	63	2	120	220	320	NaN	520	0.304988615214825	1	1	NaN	3976466.9750862	NaN	3976467.958474	3976468.47500148
78	23	0	0	90	36.1581920903955	36.241610738255	6	0.20001242402941	2	12	3	NaN	2	4	0.0189654617291481	0	1	NaN	442	8	1	2	120	220	320	NaN	520	0.0104173682630062	2	1	NaN	3976688.2134316	NaN	3976689.1968184	3976689.71337283
78	23	0	0	90	36.1581920903955	36.241610738255	15	0.500031060073525	2	3	5	NaN	1	4	0.0189654617291481	0	1	NaN	443	8	2	2	120	220	320	NaN	520	0.382040668278933	1	1	NaN	3976690.5303455	NaN	3976691.513734	3976692.03027543
78	23	0	0	90	36.1581920903955	36.241610738255	23	0.766714292112738	2	4	4	NaN	1	3	0.0189654617291481	0	1	NaN	444	8	3	2	120	220	320	NaN	520	0.281675967853516	1	1	NaN	3976693.2306152	NaN	3976694.2140792	3976694.73053253
78	23	0	0	90	36.1581920903955	36.241610738255	25	0.833385100122541	2	12	3	NaN	2	5	0.0189654617291481	0	1	NaN	445	8	4	2	120	220	320	NaN	520	0.305268615484238	1	0	NaN	3976695.8308486	NaN	3976696.8142459	3976697.33079338
78	23	0	0	90	36.1581920903955	36.241610738255	16	0.533366464078426	2	1	3	NaN	1	4	0.0189654617291481	0	1	NaN	446	8	5	2	120	220	320	NaN	520	0.272019320633262	2	0	NaN	3976698.4643153	NaN	3976699.4478382	3976699.96438548
78	23	0	0	90	36.1581920903955	36.241610738255	15	0.500031060073525	2	4	6	NaN	1	5	0.0189654617291481	0	1	NaN	447	8	6	2	120	220	320	NaN	520	0.296677468344569	2	0	NaN	3976701.0480198	NaN	3976702.0314189	3976702.54797783
78	23	0	0	90	36.1581920903955	36.241610738255	15	0.500031060073525	2	1	4	NaN	1	5	0.0189654617291481	0	1	NaN	448	8	7	2	120	220	320	NaN	520	0.344022267963737	1	1	NaN	3976703.6482832	NaN	3976704.6316888	3976705.14822113
78	23	0	0	90	36.1581920903955	36.241610738255	25	0.833385100122541	2	12	3	NaN	2	3	0.0189654617291481	0	1	NaN	449	8	8	2	120	220	320	NaN	520	0.253840536810458	1	0	NaN	3976706.2985664	NaN	3976707.2819288	3976707.79848566
78	23	0	0	90	36.1581920903955	36.241610738255	21	0.700043484102935	2	8	2	NaN	2	3	0.0189654617291481	0	1	NaN	450	8	9	2	120	220	320	NaN	520	0.279137715697289	1	0	NaN	3976708.8654633	NaN	3976709.8488829	3976710.36539988
78	23	0	0	90	36.1581920903955	36.241610738255	15	0.500031060073525	2	5	2	NaN	1	4	0.0189654617291481	0	1	NaN	451	8	10	2	120	220	320	NaN	520	0.207109568174928	1	1	NaN	3976711.4655792	NaN	3976712.4491209	3976712.96566803
78	23	0	0	90	36.1581920903955	36.241610738255	7	0.233347828034312	2	8	3	NaN	2	4	0.0189654617291481	0	1	NaN	452	8	11	2	120	220	320	NaN	520	0.354128420818597	1	0	NaN	3976713.9825006	NaN	3976714.9660171	3976715.48258098
78	23	0	0	90	36.1581920903955	36.241610738255	0	0	1	6	3	NaN	1	3	0.0189654617291481	0	1	NaN	453	8	12	2	110	210	310	NaN	510	0.174651667941362	2	0	NaN	3976716.6495542	NaN	3976717.6329988	3976718.14950403
78	23	0	0	90	36.1581920903955	36.241610738255	23	0.766714292112738	2	8	6	NaN	2	4	0.0189654617291481	0	1	NaN	454	8	13	2	120	220	320	NaN	520	0.45164306787774	2	1	NaN	3976719.133137	NaN	3976720.1165322	3976720.63307713
78	23	0	0	90	36.1581920903955	36.241610738255	16	0.533366464078426	2	4	6	NaN	1	4	0.0189654617291481	0	1	NaN	455	8	14	2	120	220	320	NaN	520	0.460458167828619	1	1	NaN	3976721.9000784	NaN	3976722.8834518	3976723.40001913
78	23	0	0	90	36.1581920903955	36.241610738255	24	0.80004969611764	2	12	4	NaN	2	3	0.0189654617291481	0	1	NaN	456	8	15	2	120	220	320	NaN	520	0.269206568133086	2	1	NaN	3976724.6669111	NaN	3976725.6503125	3976726.16695243
78	23	0	0	90	36.1581920903955	36.241610738255	23	0.766714292112738	2	1	2	NaN	1	4	0.0189654617291481	0	1	NaN	457	8	16	2	120	220	320	NaN	520	0.1339510679245	1	1	NaN	3976727.2505994	NaN	3976728.2340107	3976728.75055033
78	23	0	0	90	36.1581920903955	36.241610738255	0	0	1	9	5	NaN	2	3	0.0189654617291481	0	1	NaN	458	8	17	2	110	210	310	NaN	510	0.771660667844117	1	0	NaN	3976729.7008413	NaN	3976730.6842383	3976731.20078143
