subjno	age	gender	isPractice	viewdist	CmToPixX	CmToPixY	SOA_frm	SOA_time	targNum	targID	targExample	targRace	targGender	firstTargPos	contrast	familiarity	curr_staircase	iStair	TrialNum	BlockNum	blktrl	sessionNum	TC_FIXATION	TC_RSVP_START	TC_RSVP_END	TC_BLANK	TC_RESPONSE_ONSET	RT2afc	resp_2afc	acc	RSVPOnsetVBL	RSVPOnsetTime	RSVPOffsetVBL	RSVPOffsetTime	startrt_2afc
22	21	0	0	90	36.1581920903955	36.241610738255	22	0.73338469594717	2	12	3	NaN	2	5	0.0456048706144795	1	1	NaN	1	1	1	1	121	221	321	NaN	521	2.03075682697818	1	0	NaN	2669722.8381648	NaN	2669723.8214401	2669724.35457107
22	21	0	0	90	36.1581920903955	36.241610738255	25	0.833391699939966	2	5	3	NaN	1	3	0.0456048706144795	1	1	NaN	2	1	2	1	121	221	321	NaN	521	0.470852254424244	2	0	NaN	2669727.2386148	NaN	2669728.2218332	2669728.73832225
22	21	0	0	90	36.1581920903955	36.241610738255	6	0.200014007985592	2	5	1	NaN	1	3	0.0456048706144795	1	1	NaN	3	1	3	1	121	221	321	NaN	521	3.21531238453463	1	1	NaN	2669730.0219858	NaN	2669731.005425	2669731.52193972
22	21	0	0	90	36.1581920903955	36.241610738255	11	0.366692347973585	2	6	3	NaN	1	5	0.0456048706144795	1	1	NaN	4	1	4	1	121	221	321	NaN	521	0.369635712355375	2	0	NaN	2669735.5558827	NaN	2669736.5392599	2669737.05582559
22	21	0	0	90	36.1581920903955	36.241610738255	8	0.266685343980789	2	4	2	NaN	1	5	0.0456048706144795	1	1	NaN	5	1	5	1	121	221	321	NaN	521	2.24512036982924	2	0	NaN	2669738.2561384	NaN	2669739.2395296	2669739.75608653
22	21	0	0	90	36.1581920903955	36.241610738255	13	0.433363683968782	2	4	4	NaN	1	4	0.0456048706144795	1	1	NaN	6	1	6	1	121	221	321	NaN	521	2.14983886992559	1	1	NaN	2669742.8231273	NaN	2669743.8066515	2669744.32319613
22	21	0	0	90	36.1581920903955	36.241610738255	18	0.600042023956776	2	4	4	NaN	1	3	0.0456048706144795	1	1	NaN	7	1	7	1	121	221	321	NaN	521	3.15399532206357	2	0	NaN	2669747.3069031	NaN	2669748.2904229	2669748.80698148
22	21	0	0	90	36.1581920903955	36.241610738255	21	0.700049027949572	2	10	6	NaN	2	5	0.0456048706144795	1	1	NaN	8	1	8	1	121	221	321	NaN	521	1.97468662215397	1	0	NaN	2669752.774224	NaN	2669753.7576289	2669754.27418008
22	21	0	0	90	36.1581920903955	36.241610738255	21	0.700049027949572	2	11	5	NaN	2	3	0.0456048706144795	1	1	NaN	9	1	9	1	121	221	321	NaN	521	3.42637271713465	1	0	NaN	2669757.0746432	NaN	2669758.0580407	2669758.57459648
22	21	0	0	90	36.1581920903955	36.241610738255	18	0.600042023956776	2	5	1	NaN	1	3	0.0456048706144795	1	1	NaN	10	1	10	1	121	221	321	NaN	521	2.02003852184862	2	0	NaN	2669762.8252144	NaN	2669763.8086236	2669764.32516578
22	21	0	0	90	36.1581920903955	36.241610738255	11	0.366692347973585	2	8	1	NaN	2	5	0.0456048706144795	1	1	NaN	11	1	11	1	121	221	321	NaN	521	3.45426411740482	1	0	NaN	2669767.1589774	NaN	2669768.1423777	2669768.65893788
22	21	0	0	90	36.1581920903955	36.241610738255	10	0.333356679975987	2	4	5	NaN	1	4	0.0456048706144795	1	1	NaN	12	1	12	1	121	221	321	NaN	521	5.37303472217172	1	1	NaN	2669773.7763215	NaN	2669774.7596978	2669775.27625448
22	21	0	0	90	36.1581920903955	36.241610738255	8	0.266685343980789	2	11	4	NaN	2	4	0.0456048706144795	1	1	NaN	13	1	13	1	121	221	321	NaN	521	4.92016196995974	1	0	NaN	2669781.4771758	NaN	2669782.460459	2669782.97701613
22	21	0	0	90	36.1581920903955	36.241610738255	22	0.73338469594717	2	8	3	NaN	2	4	0.0456048706144795	1	1	NaN	14	1	14	1	121	221	321	NaN	521	1.92619302216917	2	1	NaN	2669789.3111581	NaN	2669790.2945786	2669790.81112118
22	21	0	0	90	36.1581920903955	36.241610738255	8	0.266685343980789	2	7	2	NaN	2	4	0.0456048706144795	1	1	NaN	15	1	15	1	121	221	321	NaN	521	0.603491070214659	2	1	NaN	2669793.5615875	NaN	2669794.5449827	2669795.06152883
22	21	0	0	90	36.1581920903955	36.241610738255	12	0.400028015971184	2	8	1	NaN	2	5	0.0456048706144795	1	1	NaN	16	1	16	1	121	221	321	NaN	521	0.405760854948312	2	1	NaN	2669796.4952218	NaN	2669797.478612	2669797.99515695
22	21	0	0	90	36.1581920903955	36.241610738255	17	0.566706355959177	2	9	1	NaN	2	5	0.0456048706144795	1	1	NaN	17	1	17	1	121	221	321	NaN	521	0.369122170377523	1	0	NaN	2669799.2121427	NaN	2669800.1955357	2669800.71208363
22	21	0	0	90	36.1581920903955	36.241610738255	20	0.666713359951973	2	7	6	NaN	2	3	0.0456048706144795	1	1	NaN	18	1	18	1	121	221	321	NaN	521	0.573231574613601	1	0	NaN	2669801.895741	NaN	2669802.8791457	2669803.39569633
22	21	0	0	90	36.1581920903955	36.241610738255	18	0.600042023956776	2	12	5	NaN	2	4	0.0456048706144795	1	1	NaN	19	1	19	1	121	221	321	NaN	521	0.401834737509489	2	1	NaN	2669804.7793593	NaN	2669805.762745	2669806.27931726
22	21	0	0	90	36.1581920903955	36.241610738255	22	0.73338469594717	2	8	2	NaN	2	3	0.0456048706144795	1	1	NaN	20	1	20	1	121	221	321	NaN	521	0.852931194473058	1	0	NaN	2669807.496293	NaN	2669808.4796936	2669808.99624831
22	21	0	0	90	36.1581920903955	36.241610738255	7	0.233349675983191	2	2	6	NaN	1	4	0.0456048706144795	1	1	NaN	21	1	21	1	121	221	321	NaN	521	0.413917270023376	1	1	NaN	2669810.6631406	NaN	2669811.6466671	2669812.16322243
22	21	0	0	90	36.1581920903955	36.241610738255	14	0.466699351966381	2	3	1	NaN	1	3	0.0456048706144795	1	1	NaN	22	1	22	1	121	221	321	NaN	521	0.440039622131735	1	1	NaN	2669813.3968819	NaN	2669814.3802533	2669814.89682248
22	21	0	0	90	36.1581920903955	36.241610738255	18	0.600042023956776	2	7	4	NaN	2	5	0.0456048706144795	1	1	NaN	23	1	23	1	121	221	321	NaN	521	0.282111269887537	2	1	NaN	2669816.1471548	NaN	2669817.1305398	2669817.64708823
22	21	0	0	90	36.1581920903955	36.241610738255	11	0.366692347973585	2	4	3	NaN	1	4	0.0456048706144795	1	1	NaN	24	1	24	1	121	221	321	NaN	521	0.399302137084305	1	1	NaN	2669819.2140128	NaN	2669820.1974958	2669820.71407016
22	21	0	0	90	36.1581920903955	36.241610738255	7	0.233349675983191	2	12	1	NaN	2	5	0.0456048706144795	1	1	NaN	25	1	25	1	121	221	321	NaN	521	1.28204792179167	1	0	NaN	2669821.9310551	NaN	2669822.914442	2669823.43100398
22	21	0	0	90	36.1581920903955	36.241610738255	12	0.400028015971184	2	4	6	NaN	1	4	0.0456048706144795	1	1	NaN	26	1	26	1	121	221	321	NaN	521	0.401693674735725	1	1	NaN	2669825.5312669	NaN	2669826.5148013	2669827.03135903
22	21	0	0	90	36.1581920903955	36.241610738255	25	0.833391699939966	2	8	3	NaN	2	4	0.0456048706144795	1	1	NaN	27	1	27	1	121	221	321	NaN	521	0.277017469983548	2	1	NaN	2669828.2483481	NaN	2669829.2317271	2669829.74827893
22	21	0	0	90	36.1581920903955	36.241610738255	8	0.266685343980789	2	5	6	NaN	1	3	0.0456048706144795	1	1	NaN	28	1	28	1	121	221	321	NaN	521	0.274546169675887	1	1	NaN	2669831.29862	NaN	2669832.2820414	2669832.79858013
22	21	0	0	90	36.1581920903955	36.241610738255	12	0.400028015971184	2	12	5	NaN	2	5	0.0456048706144795	1	1	NaN	29	1	29	1	121	221	321	NaN	521	0.434956570155919	2	1	NaN	2669833.8822212	NaN	2669834.8656126	2669835.38217573
22	21	0	0	90	36.1581920903955	36.241610738255	24	0.800056031942368	2	2	2	NaN	1	4	0.0456048706144795	1	1	NaN	30	1	30	1	121	221	321	NaN	521	0.612916422076523	1	1	NaN	2669836.6323956	NaN	2669837.6158935	2669838.13244678
22	21	0	0	90	36.1581920903955	36.241610738255	23	0.766720363944769	2	12	5	NaN	2	5	0.0456048706144795	1	1	NaN	31	1	31	1	121	221	321	NaN	521	0.967291522305459	2	1	NaN	2669839.5661425	NaN	2669840.5495294	2669841.06607398
22	21	0	0	90	36.1581920903955	36.241610738255	20	0.666713359951973	2	11	5	NaN	2	5	0.0456048706144795	1	1	NaN	32	1	32	1	121	221	321	NaN	521	0.435166022274643	1	0	NaN	2669842.8497809	NaN	2669843.8331793	2669844.34971788
22	21	0	0	90	36.1581920903955	36.241610738255	21	0.700049027949572	2	9	5	NaN	2	5	0.0456048706144795	1	1	NaN	33	1	33	1	121	221	321	NaN	521	0.277120470069349	2	1	NaN	2669845.6000396	NaN	2669846.5834388	2669847.10000653
22	21	0	0	90	36.1581920903955	36.241610738255	17	0.566706355959177	2	5	3	NaN	1	5	0.0456048706144795	1	1	NaN	34	1	34	1	121	221	321	NaN	521	0.300715464632958	1	1	NaN	2669848.2001656	NaN	2669849.1836945	2669849.70024624
22	21	0	0	90	36.1581920903955	36.241610738255	19	0.633377691954374	2	8	5	NaN	2	3	0.0456048706144795	1	1	NaN	35	1	35	1	121	221	321	NaN	521	0.58777056960389	1	0	NaN	2669850.817101	NaN	2669851.8006191	2669852.31717383
22	21	0	0	90	36.1581920903955	36.241610738255	16	0.533370687961578	2	3	6	NaN	1	5	0.0456048706144795	1	1	NaN	36	1	36	1	121	221	321	NaN	521	0.374952190089971	1	1	NaN	2669853.734168	NaN	2669854.7175793	2669855.23413801
22	21	0	0	90	36.1581920903955	36.241610738255	13	0.433363683968782	2	10	5	NaN	2	3	0.0456048706144795	1	1	NaN	37	1	37	1	121	221	321	NaN	521	1.07475512241945	1	0	NaN	2669856.4343304	NaN	2669857.4178404	2669857.93440198
22	21	0	0	90	36.1581920903955	36.241610738255	11	0.366692347973585	2	1	1	NaN	1	5	0.0456048706144795	1	1	NaN	38	1	38	1	121	221	321	NaN	521	0.779058322310448	1	1	NaN	2669859.817992	NaN	2669860.8015122	2669861.31806938
22	21	0	0	90	36.1581920903955	36.241610738255	25	0.833391699939966	2	6	1	NaN	1	4	0.0456048706144795	1	1	NaN	39	1	39	1	121	221	321	NaN	521	0.57502541737631	1	1	NaN	2669862.9184171	NaN	2669863.901814	2669864.41836508
22	21	0	0	90	36.1581920903955	36.241610738255	13	0.433363683968782	2	3	1	NaN	1	4	0.0456048706144795	1	1	NaN	40	1	40	1	121	221	321	NaN	521	0.387017922475934	1	1	NaN	2669865.8021289	NaN	2669866.7854403	2669867.30199038
22	21	0	0	90	36.1581920903955	36.241610738255	25	0.833391699939966	2	9	1	NaN	2	5	0.0456048706144795	1	1	NaN	41	1	41	1	121	221	321	NaN	521	0.991189670283347	1	0	NaN	2669868.5022985	NaN	2669869.485701	2669870.00224703
22	21	0	0	90	36.1581920903955	36.241610738255	24	0.800056031942368	2	1	5	NaN	1	4	0.0456048706144795	1	1	NaN	42	1	42	1	121	221	321	NaN	521	0.762741216924042	1	1	NaN	2669871.8026252	NaN	2669872.7860065	2669873.30257498
22	21	0	0	90	36.1581920903955	36.241610738255	17	0.566706355959177	2	2	4	NaN	1	3	0.0456048706144795	1	1	NaN	43	1	43	1	121	221	321	NaN	521	0.519156522117555	1	1	NaN	2669874.8862665	NaN	2669875.8696574	2669876.38621108
22	21	0	0	90	36.1581920903955	36.241610738255	21	0.700049027949572	2	2	1	NaN	1	5	0.0456048706144795	1	1	NaN	44	1	44	1	121	221	321	NaN	521	2.27715442189947	1	1	NaN	2669877.7198707	NaN	2669878.7032806	2669879.21983198
22	21	0	0	90	36.1581920903955	36.241610738255	19	0.633377691954374	2	12	4	NaN	2	4	0.0456048706144795	1	1	NaN	45	1	45	1	121	221	321	NaN	521	0.333365269936621	2	1	NaN	2669882.3036556	NaN	2669883.2870187	2669883.80361753
22	21	0	0	90	36.1581920903955	36.241610738255	20	0.666713359951973	2	2	2	NaN	1	4	0.0456048706144795	1	1	NaN	46	1	46	1	121	221	321	NaN	521	0.163263822440058	1	1	NaN	2669884.953793	NaN	2669885.9373147	2669886.45387738
22	21	0	0	90	36.1581920903955	36.241610738255	17	0.566706355959177	2	6	4	NaN	1	3	0.0456048706144795	1	1	NaN	47	1	47	1	121	221	321	NaN	521	0.227095869835466	2	0	NaN	2669887.5542023	NaN	2669888.5375754	2669889.05412903
22	21	0	0	90	36.1581920903955	36.241610738255	22	0.73338469594717	2	9	4	NaN	2	4	0.0456048706144795	1	1	NaN	48	1	48	1	121	221	321	NaN	521	0.26117127481848	2	1	NaN	2669890.1044288	NaN	2669891.0878325	2669891.60438053
22	21	0	0	90	36.1581920903955	36.241610738255	17	0.566706355959177	2	12	1	NaN	2	5	0.0456048706144795	1	1	NaN	49	1	49	1	121	221	321	NaN	521	0.325745170004666	2	1	NaN	2669892.6713797	NaN	2669893.6547399	2669894.17129543
22	21	0	0	90	36.1581920903955	36.241610738255	25	0.833391699939966	2	2	3	NaN	1	5	0.0456048706144795	1	1	NaN	50	1	50	1	121	221	321	NaN	521	0.324140437413007	1	1	NaN	2669895.3049363	NaN	2669896.2883444	2669896.80489276
22	21	0	0	90	36.1581920903955	36.241610738255	17	0.566706355959177	2	8	3	NaN	2	3	0.0456048706144795	1	1	NaN	51	1	51	1	121	221	321	NaN	521	0.394933721981943	2	1	NaN	2669897.9385483	NaN	2669898.9219305	2669899.43849108
22	21	0	0	90	36.1581920903955	36.241610738255	15	0.50003501996398	2	3	2	NaN	1	3	0.0456048706144795	1	1	NaN	52	1	52	1	121	221	321	NaN	521	0.685612322296947	2	0	NaN	2669900.655403	NaN	2669901.6388584	2669902.15541798
22	21	0	0	90	36.1581920903955	36.241610738255	9	0.300021011978388	2	5	4	NaN	1	5	0.0456048706144795	1	1	NaN	53	1	53	1	121	221	321	NaN	521	0.405371622182429	1	1	NaN	2669903.6556487	NaN	2669904.6391475	2669905.15571418
22	21	0	0	90	36.1581920903955	36.241610738255	6	0.200014007985592	2	3	3	NaN	1	3	0.0456048706144795	1	1	NaN	54	1	54	1	121	221	321	NaN	521	0.280256522353739	1	1	NaN	2669906.3726955	NaN	2669907.3561088	2669907.87265098
22	21	0	0	90	36.1581920903955	36.241610738255	8	0.266685343980789	2	7	2	NaN	2	4	0.0456048706144795	1	1	NaN	55	1	55	1	121	221	321	NaN	521	1.44011230766773	1	0	NaN	2669908.9729866	NaN	2669909.9563529	2669910.47290759
22	21	0	0	90	36.1581920903955	36.241610738255	21	0.700049027949572	2	4	6	NaN	1	3	0.0456048706144795	1	1	NaN	56	1	56	1	121	221	321	NaN	521	0.369863070081919	1	1	NaN	2669912.7233369	NaN	2669913.7067283	2669914.22327063
22	21	0	0	90	36.1581920903955	36.241610738255	22	0.73338469594717	2	11	6	NaN	2	3	0.0456048706144795	1	1	NaN	57	1	57	1	121	221	321	NaN	521	0.350505121983588	1	0	NaN	2669915.4069299	NaN	2669916.3903211	2669916.90687778
22	21	0	0	90	36.1581920903955	36.241610738255	23	0.766720363944769	2	8	5	NaN	2	5	0.0456048706144795	1	1	NaN	58	1	58	1	121	221	321	NaN	521	0.0102977370843291	2	1	NaN	2669918.073842	NaN	2669919.0572527	2669919.57379736
22	21	0	0	90	36.1581920903955	36.241610738255	8	0.266685343980789	2	2	1	NaN	1	3	0.0456048706144795	1	1	NaN	59	1	59	1	121	221	321	NaN	521	0.318837670143694	1	1	NaN	2669920.3905973	NaN	2669921.374139	2669921.89069713
22	21	0	0	90	36.1581920903955	36.241610738255	17	0.566706355959177	2	4	5	NaN	1	3	0.0456048706144795	1	1	NaN	60	1	60	1	121	221	321	NaN	521	0.244932922068983	1	1	NaN	2669923.0243461	NaN	2669924.0077445	2669924.52428228
22	21	0	0	90	36.1581920903955	36.241610738255	23	0.766720363944769	2	6	2	NaN	1	4	0.0456048706144795	1	1	NaN	61	1	61	1	121	221	321	NaN	521	0.230955970007926	1	1	NaN	2669925.5745924	NaN	2669926.5580248	2669927.07453253
22	21	0	0	90	36.1581920903955	36.241610738255	0	0	1	6	1	NaN	1	4	0.0456048706144795	1	1	NaN	62	1	62	1	111	211	311	NaN	511	0.360380369704217	1	1	NaN	2669928.1248555	NaN	2669929.108246	2669929.62478613
22	21	0	0	90	36.1581920903955	36.241610738255	19	0.633377691954374	2	10	6	NaN	2	5	0.0456048706144795	1	1	NaN	63	1	63	1	121	221	321	NaN	521	1.18935932219028	1	0	NaN	2669930.7917503	NaN	2669931.7751756	2669932.29172548
22	21	0	0	90	36.1581920903955	36.241610738255	9	0.300021011978388	2	1	2	NaN	1	5	0.0456048706144795	1	1	NaN	64	2	1	1	121	221	321	NaN	521	0.415711821988225	1	1	NaN	2669940.1093507	NaN	2669941.0927911	2669941.60930408
22	21	0	0	90	36.1581920903955	36.241610738255	9	0.300021011978388	2	9	4	NaN	2	5	0.0456048706144795	1	1	NaN	65	2	2	1	121	221	321	NaN	521	0.362394422292709	2	1	NaN	2669942.8429572	NaN	2669943.8263536	2669944.34290728
22	21	0	0	90	36.1581920903955	36.241610738255	19	0.633377691954374	2	3	3	NaN	1	3	0.0456048706144795	1	1	NaN	66	2	3	1	121	221	321	NaN	521	0.839869174640626	1	1	NaN	2669945.5098659	NaN	2669946.4932781	2669947.00983823
22	21	0	0	90	36.1581920903955	36.241610738255	11	0.366692347973585	2	3	4	NaN	1	4	0.0456048706144795	1	1	NaN	67	2	4	1	121	221	321	NaN	521	0.729081322439015	1	1	NaN	2669948.6601805	NaN	2669949.6435941	2669950.16014728
22	21	0	0	90	36.1581920903955	36.241610738255	11	0.366692347973585	2	2	5	NaN	1	5	0.0456048706144795	1	1	NaN	68	2	5	1	121	221	321	NaN	521	1.98285736981779	1	1	NaN	2669951.7104959	NaN	2669952.6938948	2669953.21045253
22	21	0	0	90	36.1581920903955	36.241610738255	24	0.800056031942368	2	8	6	NaN	2	3	0.0456048706144795	1	1	NaN	69	2	6	1	121	221	321	NaN	521	0.242317470256239	2	1	NaN	2669956.010931	NaN	2669956.9943135	2669957.51087453
22	21	0	0	90	36.1581920903955	36.241610738255	13	0.433363683968782	2	5	3	NaN	1	3	0.0456048706144795	1	1	NaN	70	2	7	1	121	221	321	NaN	521	0.300157594494522	1	1	NaN	2669958.5611593	NaN	2669959.5445572	2669960.06113401
22	21	0	0	90	36.1581920903955	36.241610738255	22	0.73338469594717	2	2	2	NaN	1	5	0.0456048706144795	1	1	NaN	71	2	8	1	121	221	321	NaN	521	0.403203969821334	1	1	NaN	2669961.1781083	NaN	2669962.16149	2669962.67804043
22	21	0	0	90	36.1581920903955	36.241610738255	0	0	1	2	5	NaN	1	3	0.0456048706144795	1	1	NaN	72	2	9	1	111	211	311	NaN	511	1.47050197003409	1	1	NaN	2669963.8949769	NaN	2669964.8784255	2669965.39497723
22	21	0	0	90	36.1581920903955	36.241610738255	20	0.666713359951973	2	1	2	NaN	1	4	0.0456048706144795	1	1	NaN	73	2	10	1	121	221	321	NaN	521	0.630904317367822	1	1	NaN	2669967.6787613	NaN	2669968.6621422	2669969.17868008
22	21	0	0	90	36.1581920903955	36.241610738255	22	0.73338469594717	2	5	6	NaN	1	3	0.0456048706144795	1	1	NaN	74	2	11	1	121	221	321	NaN	521	0.697257537394762	1	1	NaN	2669970.6122394	NaN	2669971.5958197	2669972.11230676
22	21	0	0	90	36.1581920903955	36.241610738255	14	0.466699351966381	2	7	3	NaN	2	4	0.0456048706144795	1	1	NaN	75	2	12	1	121	221	321	NaN	521	0.256294369697571	2	1	NaN	2669973.6293096	NaN	2669974.6127092	2669975.12927163
22	21	0	0	90	36.1581920903955	36.241610738255	6	0.200014007985592	2	7	1	NaN	2	4	0.0456048706144795	1	1	NaN	76	2	13	1	121	221	321	NaN	521	0.345306570176035	2	1	NaN	2669976.1962305	NaN	2669977.1796383	2669977.69619563
22	21	0	0	90	36.1581920903955	36.241610738255	7	0.233349675983191	2	7	2	NaN	2	4	0.0456048706144795	1	1	NaN	77	2	14	1	121	221	321	NaN	521	0.462186169810593	2	1	NaN	2669978.8631669	NaN	2669979.846582	2669980.36311443
22	21	0	0	90	36.1581920903955	36.241610738255	11	0.366692347973585	2	3	6	NaN	1	4	0.0456048706144795	1	1	NaN	78	2	15	1	121	221	321	NaN	521	0.383023669943213	1	1	NaN	2669981.6301108	NaN	2669982.6134779	2669983.13006423
22	21	0	0	90	36.1581920903955	36.241610738255	25	0.833391699939966	2	9	3	NaN	2	3	0.0456048706144795	1	1	NaN	79	2	16	1	121	221	321	NaN	521	0.763059769757092	1	0	NaN	2669984.3304153	NaN	2669985.3137763	2669985.83031703
22	21	0	0	90	36.1581920903955	36.241610738255	24	0.800056031942368	2	11	3	NaN	2	5	0.0456048706144795	1	1	NaN	80	2	17	1	121	221	321	NaN	521	0.344246622174978	1	0	NaN	2669987.3973405	NaN	2669988.3807671	2669988.89729088
22	21	0	0	90	36.1581920903955	36.241610738255	7	0.233349675983191	2	3	4	NaN	1	5	0.0456048706144795	1	1	NaN	81	2	18	1	121	221	321	NaN	521	0.531858764588833	1	1	NaN	2669990.0976013	NaN	2669991.0808995	2669991.59755114
22	21	0	0	90	36.1581920903955	36.241610738255	6	0.200014007985592	2	8	3	NaN	2	3	0.0456048706144795	1	1	NaN	82	2	19	1	121	221	321	NaN	521	0.273697800002992	2	1	NaN	2669992.9478964	NaN	2669993.9312868	2669994.4478588
22	21	0	0	90	36.1581920903955	36.241610738255	12	0.400028015971184	2	5	5	NaN	1	3	0.0456048706144795	1	1	NaN	83	2	20	1	121	221	321	NaN	521	1.05016691703349	1	1	NaN	2669995.5314158	NaN	2669996.5148749	2669997.03144078
22	21	0	0	90	36.1581920903955	36.241610738255	7	0.233349675983191	2	11	1	NaN	2	5	0.0456048706144795	1	1	NaN	84	2	21	1	121	221	321	NaN	521	0.426991442684084	2	1	NaN	2669998.8984575	NaN	2669999.8818646	2670000.39843456
22	21	0	0	90	36.1581920903955	36.241610738255	23	0.766720363944769	2	1	2	NaN	1	4	0.0456048706144795	1	1	NaN	85	2	22	1	121	221	321	NaN	521	2.0135315223597	2	0	NaN	2670001.6320888	NaN	2670002.6154862	2670003.13203478
22	21	0	0	90	36.1581920903955	36.241610738255	19	0.633377691954374	2	6	4	NaN	1	5	0.0456048706144795	1	1	NaN	86	2	23	1	121	221	321	NaN	521	0.375324522145092	1	1	NaN	2670005.9658565	NaN	2670006.9492362	2670007.46578808
22	21	0	0	90	36.1581920903955	36.241610738255	24	0.800056031942368	2	6	3	NaN	1	3	0.0456048706144795	1	1	NaN	87	2	24	1	121	221	321	NaN	521	0.523912070319057	1	1	NaN	2670008.649456	NaN	2670009.632836	2670010.14938223
22	21	0	0	90	36.1581920903955	36.241610738255	10	0.333356679975987	2	8	2	NaN	2	4	0.0456048706144795	1	1	NaN	88	2	25	1	121	221	321	NaN	521	2.06665152218193	1	0	NaN	2670011.4830387	NaN	2670012.4664848	2670012.98300328
22	21	0	0	90	36.1581920903955	36.241610738255	21	0.700049027949572	2	12	1	NaN	2	4	0.0456048706144795	1	1	NaN	89	2	26	1	121	221	321	NaN	521	1.042537889909	1	0	NaN	2670015.8668092	NaN	2670016.8502081	2670017.36677191
22	21	0	0	90	36.1581920903955	36.241610738255	12	0.400028015971184	2	6	2	NaN	1	3	0.0456048706144795	1	1	NaN	90	2	27	1	121	221	321	NaN	521	1.06029342208058	1	1	NaN	2670019.2171392	NaN	2670020.2005404	2670020.71709858
22	21	0	0	90	36.1581920903955	36.241610738255	22	0.73338469594717	2	6	5	NaN	1	4	0.0456048706144795	1	1	NaN	91	2	28	1	121	221	321	NaN	521	0.436584922019392	1	1	NaN	2670022.6008249	NaN	2670023.5841983	2670024.10076008
22	21	0	0	90	36.1581920903955	36.241610738255	12	0.400028015971184	2	11	1	NaN	2	5	0.0456048706144795	1	1	NaN	92	2	29	1	121	221	321	NaN	521	0.302601222414523	2	1	NaN	2670025.3510876	NaN	2670026.3344683	2670026.85103238
22	21	0	0	90	36.1581920903955	36.241610738255	10	0.333356679975987	2	4	2	NaN	1	4	0.0456048706144795	1	1	NaN	93	2	30	1	121	221	321	NaN	521	0.349287217482924	2	0	NaN	2670027.9680006	NaN	2670028.9514151	2670029.46795018
22	21	0	0	90	36.1581920903955	36.241610738255	20	0.666713359951973	2	12	6	NaN	2	3	0.0456048706144795	1	1	NaN	94	2	31	1	121	221	321	NaN	521	0.522404370363802	2	1	NaN	2670030.6349372	NaN	2670031.6183245	2670032.13488143
22	21	0	0	90	36.1581920903955	36.241610738255	7	0.233349675983191	2	11	3	NaN	2	3	0.0456048706144795	1	1	NaN	95	2	32	1	121	221	321	NaN	521	2.96100436989218	1	0	NaN	2670033.4685508	NaN	2670034.4519492	2670034.96849243
22	21	0	0	90	36.1581920903955	36.241610738255	20	0.666713359951973	2	6	2	NaN	1	3	0.0456048706144795	1	1	NaN	96	2	33	1	121	221	321	NaN	521	0.40551994740963	1	1	NaN	2670038.7356501	NaN	2670039.7191197	2670040.23569325
22	21	0	0	90	36.1581920903955	36.241610738255	16	0.533370687961578	2	9	1	NaN	2	4	0.0456048706144795	1	1	NaN	97	2	34	1	121	221	321	NaN	521	0.296852170024067	2	1	NaN	2670041.4526417	NaN	2670042.4360658	2670042.95260893
22	21	0	0	90	36.1581920903955	36.241610738255	22	0.73338469594717	2	7	5	NaN	2	3	0.0456048706144795	1	1	NaN	98	2	35	1	121	221	321	NaN	521	0.504079922102392	1	0	NaN	2670044.0696071	NaN	2670045.0529837	2670045.56954448
22	21	0	0	90	36.1581920903955	36.241610738255	20	0.666713359951973	2	6	3	NaN	1	4	0.0456048706144795	1	1	NaN	99	2	36	1	121	221	321	NaN	521	0.518993821926415	1	1	NaN	2670046.8865408	NaN	2670047.8699396	2670048.38648358
22	21	0	0	90	36.1581920903955	36.241610738255	14	0.466699351966381	2	10	1	NaN	2	5	0.0456048706144795	1	1	NaN	100	2	37	1	121	221	321	NaN	521	0.317473969887942	2	1	NaN	2670049.7202378	NaN	2670050.7035377	2670051.22009033
22	21	0	0	90	36.1581920903955	36.241610738255	19	0.633377691954374	2	9	5	NaN	2	5	0.0456048706144795	1	1	NaN	101	2	38	1	121	221	321	NaN	521	0.467535942792892	1	0	NaN	2670052.3537442	NaN	2670053.3371346	2670053.85369866
22	21	0	0	90	36.1581920903955	36.241610738255	21	0.700049027949572	2	9	3	NaN	2	5	0.0456048706144795	1	1	NaN	102	2	39	1	121	221	321	NaN	521	0.444018522277474	2	1	NaN	2670055.1373667	NaN	2670056.1207406	2670056.63731558
22	21	0	0	90	36.1581920903955	36.241610738255	21	0.700049027949572	2	10	3	NaN	2	3	0.0456048706144795	1	1	NaN	103	2	40	1	121	221	321	NaN	521	3.53410006500781	1	0	NaN	2670057.8876542	NaN	2670058.8710222	2670059.38755644
22	21	0	0	90	36.1581920903955	36.241610738255	13	0.433363683968782	2	7	6	NaN	2	3	0.0456048706144795	1	1	NaN	104	2	41	1	121	221	321	NaN	521	0.867317469790578	2	1	NaN	2670063.7381934	NaN	2670064.7216348	2670065.23814273
22	21	0	0	90	36.1581920903955	36.241610738255	20	0.666713359951973	2	4	5	NaN	1	3	0.0456048706144795	1	1	NaN	105	2	42	1	121	221	321	NaN	521	0.355933621991426	1	1	NaN	2670066.9218455	NaN	2670067.9052263	2670068.42179248
22	21	0	0	90	36.1581920903955	36.241610738255	19	0.633377691954374	2	11	1	NaN	2	4	0.0456048706144795	1	1	NaN	106	2	43	1	121	221	321	NaN	521	0.552695122547448	2	1	NaN	2670069.5887798	NaN	2670070.5721567	2670071.08871968
22	21	0	0	90	36.1581920903955	36.241610738255	12	0.400028015971184	2	2	4	NaN	1	5	0.0456048706144795	1	1	NaN	107	2	44	1	121	221	321	NaN	521	0.390034227631986	1	1	NaN	2670072.4556881	NaN	2670073.4391136	2670073.95566797
22	21	0	0	90	36.1581920903955	36.241610738255	15	0.50003501996398	2	11	4	NaN	2	4	0.0456048706144795	1	1	NaN	108	2	45	1	121	221	321	NaN	521	0.68970592180267	1	0	NaN	2670075.1559699	NaN	2670076.1393694	2670076.65593758
22	21	0	0	90	36.1581920903955	36.241610738255	6	0.200014007985592	2	6	2	NaN	1	4	0.0456048706144795	1	1	NaN	109	2	46	1	121	221	321	NaN	521	2.70544172171503	1	1	NaN	2670078.1562699	NaN	2670079.1396741	2670079.65623248
22	21	0	0	90	36.1581920903955	36.241610738255	20	0.666713359951973	2	12	4	NaN	2	3	0.0456048706144795	1	1	NaN	110	2	47	1	121	221	321	NaN	521	0.496028869878501	2	1	NaN	2670083.1734409	NaN	2670084.1568341	2670084.67337973
22	21	0	0	90	36.1581920903955	36.241610738255	17	0.566706355959177	2	4	1	NaN	1	3	0.0456048706144795	1	1	NaN	111	2	48	1	121	221	321	NaN	521	0.479965869802982	1	1	NaN	2670085.9735759	NaN	2670086.9571124	2670087.47365653
22	21	0	0	90	36.1581920903955	36.241610738255	15	0.50003501996398	2	7	5	NaN	2	5	0.0456048706144795	1	1	NaN	112	2	49	1	121	221	321	NaN	521	0.207540170289576	2	1	NaN	2670088.7739816	NaN	2670089.7573837	2670090.27393033
22	21	0	0	90	36.1581920903955	36.241610738255	17	0.566706355959177	2	3	1	NaN	1	4	0.0456048706144795	1	1	NaN	113	2	50	1	121	221	321	NaN	521	0.474910669960082	1	1	NaN	2670091.2909012	NaN	2670092.2743087	2670092.79084693
22	21	0	0	90	36.1581920903955	36.241610738255	10	0.333356679975987	2	7	1	NaN	2	3	0.0456048706144795	1	1	NaN	114	2	51	1	121	221	321	NaN	521	0.514641870278865	2	1	NaN	2670094.0743473	NaN	2670095.0579079	2670095.57445273
22	21	0	0	90	36.1581920903955	36.241610738255	10	0.333356679975987	2	7	3	NaN	2	4	0.0456048706144795	1	1	NaN	115	2	52	1	121	221	321	NaN	521	0.505678674671799	2	1	NaN	2670096.9081134	NaN	2670097.8915197	2670098.40806743
22	21	0	0	90	36.1581920903955	36.241610738255	19	0.633377691954374	2	12	2	NaN	2	3	0.0456048706144795	1	1	NaN	116	2	53	1	121	221	321	NaN	521	2.48868273245171	1	0	NaN	2670099.7250542	NaN	2670100.7084596	2670101.22501237
22	21	0	0	90	36.1581920903955	36.241610738255	12	0.400028015971184	2	7	5	NaN	2	3	0.0456048706144795	1	1	NaN	117	2	54	1	121	221	321	NaN	521	1.34393012244254	2	1	NaN	2670104.5255313	NaN	2670105.5089384	2670106.02549168
22	21	0	0	90	36.1581920903955	36.241610738255	10	0.333356679975987	2	1	1	NaN	1	4	0.0456048706144795	1	1	NaN	118	2	55	1	121	221	321	NaN	521	0.532818322069943	2	0	NaN	2670108.1926167	NaN	2670109.1759545	2670109.69251778
22	21	0	0	90	36.1581920903955	36.241610738255	23	0.766720363944769	2	4	1	NaN	1	3	0.0456048706144795	1	1	NaN	119	2	56	1	121	221	321	NaN	521	0.274759990163147	1	1	NaN	2670111.0428586	NaN	2670112.0261256	2670112.54280211
22	21	0	0	90	36.1581920903955	36.241610738255	24	0.800056031942368	2	1	6	NaN	1	3	0.0456048706144795	1	1	NaN	120	2	57	1	121	221	321	NaN	521	0.323386969976127	1	1	NaN	2670113.6262848	NaN	2670114.609826	2670115.12638933
22	21	0	0	90	36.1581920903955	36.241610738255	18	0.600042023956776	2	8	3	NaN	2	3	0.0456048706144795	1	1	NaN	121	2	58	1	121	221	321	NaN	521	0.441435770131648	1	0	NaN	2670116.2600166	NaN	2670117.2434162	2670117.75997693
22	21	0	0	90	36.1581920903955	36.241610738255	13	0.433363683968782	2	2	3	NaN	1	4	0.0456048706144795	1	1	NaN	122	2	59	1	121	221	321	NaN	521	0.251292322296649	1	1	NaN	2670119.0102932	NaN	2670119.9936847	2670120.51025298
22	21	0	0	90	36.1581920903955	36.241610738255	9	0.300021011978388	2	4	1	NaN	1	3	0.0456048706144795	1	1	NaN	123	2	60	1	121	221	321	NaN	521	1.27620232198387	1	1	NaN	2670121.5772339	NaN	2670122.5606265	2670123.07716878
22	21	0	0	90	36.1581920903955	36.241610738255	21	0.700049027949572	2	12	4	NaN	2	5	0.0456048706144795	1	1	NaN	124	2	61	1	121	221	321	NaN	521	0.276501622051001	2	1	NaN	2670125.1775718	NaN	2670126.1609649	2670126.67752598
22	21	0	0	90	36.1581920903955	36.241610738255	18	0.600042023956776	2	8	4	NaN	2	4	0.0456048706144795	1	1	NaN	125	2	62	1	121	221	321	NaN	521	0.236414370127022	2	1	NaN	2670127.7611555	NaN	2670128.7445541	2670129.26109993
22	21	0	0	90	36.1581920903955	36.241610738255	24	0.800056031942368	2	4	5	NaN	1	3	0.0456048706144795	1	1	NaN	126	2	63	1	121	221	321	NaN	521	0.758275070227683	1	1	NaN	2670130.3113978	NaN	2670131.2948095	2670131.81136073
22	21	0	0	90	36.1581920903955	36.241610738255	21	0.700049027949572	2	6	5	NaN	1	5	0.0456048706144795	1	1	NaN	127	3	1	1	121	221	321	NaN	521	1.34169562254101	2	0	NaN	2670139.4956425	NaN	2670140.4790438	2670140.99559878
22	21	0	0	90	36.1581920903955	36.241610738255	14	0.466699351966381	2	6	5	NaN	1	3	0.0456048706144795	1	1	NaN	128	3	2	1	121	221	321	NaN	521	1.97992426995188	1	1	NaN	2670143.1459867	NaN	2670144.129398	2670144.64596383
22	21	0	0	90	36.1581920903955	36.241610738255	12	0.400028015971184	2	3	3	NaN	1	3	0.0456048706144795	1	1	NaN	129	3	3	1	121	221	321	NaN	521	0.391044337302446	1	1	NaN	2670147.4465309	NaN	2670148.4298335	2670148.94638106
22	21	0	0	90	36.1581920903955	36.241610738255	10	0.333356679975987	2	10	4	NaN	2	3	0.0456048706144795	1	1	NaN	130	3	4	1	121	221	321	NaN	521	0.0105189220048487	2	1	NaN	2670150.1466963	NaN	2670151.1301089	2670151.64664858
22	21	0	0	90	36.1581920903955	36.241610738255	22	0.73338469594717	2	3	2	NaN	1	4	0.0456048706144795	1	1	NaN	131	3	5	1	121	221	321	NaN	521	2.23050586972386	2	0	NaN	2670152.4636027	NaN	2670153.4469822	2670153.96355073
22	21	0	0	90	36.1581920903955	36.241610738255	15	0.50003501996398	2	2	6	NaN	1	3	0.0456048706144795	1	1	NaN	132	3	6	1	121	221	321	NaN	521	0.303532222285867	1	1	NaN	2670157.0140725	NaN	2670157.9974861	2670158.51399228
22	21	0	0	90	36.1581920903955	36.241610738255	8	0.266685343980789	2	1	3	NaN	1	4	0.0456048706144795	1	1	NaN	133	3	7	1	121	221	321	NaN	521	0.310763070359826	1	1	NaN	2670159.6309146	NaN	2670160.6144663	2670161.13090743
22	21	0	0	90	36.1581920903955	36.241610738255	24	0.800056031942368	2	5	2	NaN	1	5	0.0456048706144795	1	1	NaN	134	3	8	1	121	221	321	NaN	521	0.789343517739326	1	1	NaN	2670162.2645823	NaN	2670163.2479958	2670163.76452508
22	21	0	0	90	36.1581920903955	36.241610738255	18	0.600042023956776	2	1	2	NaN	1	3	0.0456048706144795	1	1	NaN	135	3	9	1	121	221	321	NaN	521	2.01581567479298	1	1	NaN	2670165.3813862	NaN	2670166.3649558	2670166.88148353
22	21	0	0	90	36.1581920903955	36.241610738255	20	0.666713359951973	2	9	2	NaN	2	3	0.0456048706144795	1	1	NaN	136	3	10	1	121	221	321	NaN	521	0.75423097005114	2	1	NaN	2670169.7152992	NaN	2670170.6987448	2670171.21523443
22	21	0	0	90	36.1581920903955	36.241610738255	18	0.600042023956776	2	7	3	NaN	2	3	0.0456048706144795	1	1	NaN	137	3	11	1	121	221	321	NaN	521	0.310966000426561	2	1	NaN	2670172.7989088	NaN	2670173.7822886	2670174.2988801
22	21	0	0	90	36.1581920903955	36.241610738255	16	0.533370687961578	2	6	5	NaN	1	4	0.0456048706144795	1	1	NaN	138	3	12	1	121	221	321	NaN	521	0.301054017618299	1	1	NaN	2670175.4323403	NaN	2670176.4159496	2670176.93246038
22	21	0	0	90	36.1581920903955	36.241610738255	13	0.433363683968782	2	11	2	NaN	2	4	0.0456048706144795	1	1	NaN	139	3	13	1	121	221	321	NaN	521	3.01645797025412	1	0	NaN	2670178.5495024	NaN	2670179.5329343	2670180.04944513
22	21	0	0	90	36.1581920903955	36.241610738255	22	0.73338469594717	2	1	1	NaN	1	3	0.0456048706144795	1	1	NaN	140	3	14	1	121	221	321	NaN	521	0.457558194641024	1	1	NaN	2670183.8998387	NaN	2670184.883409	2670185.39997371
22	21	0	0	90	36.1581920903955	36.241610738255	12	0.400028015971184	2	2	1	NaN	1	4	0.0456048706144795	1	1	NaN	141	3	15	1	121	221	321	NaN	521	0.882082022260875	1	1	NaN	2670186.6834598	NaN	2670187.6670351	2670188.18356718
22	21	0	0	90	36.1581920903955	36.241610738255	21	0.700049027949572	2	6	6	NaN	1	3	0.0456048706144795	1	1	NaN	142	3	16	1	121	221	321	NaN	521	1.39379657479003	1	1	NaN	2670189.8839692	NaN	2670190.8673649	2670191.38389483
22	21	0	0	90	36.1581920903955	36.241610738255	24	0.800056031942368	2	12	5	NaN	2	5	0.0456048706144795	1	1	NaN	143	3	17	1	121	221	321	NaN	521	0.69277962250635	2	1	NaN	2670193.6009819	NaN	2670194.5843575	2670195.10092308
22	21	0	0	90	36.1581920903955	36.241610738255	20	0.666713359951973	2	1	1	NaN	1	3	0.0456048706144795	1	1	NaN	144	3	18	1	121	221	321	NaN	521	0.0103943217545748	1	1	NaN	2670196.6011226	NaN	2670197.5846644	2670198.10122268
22	21	0	0	90	36.1581920903955	36.241610738255	11	0.366692347973585	2	1	6	NaN	1	3	0.0456048706144795	1	1	NaN	145	3	19	1	121	221	321	NaN	521	1.66342836990952	2	0	NaN	2670198.9180123	NaN	2670199.9015527	2670200.41810593
22	21	0	0	90	36.1581920903955	36.241610738255	18	0.600042023956776	2	2	2	NaN	1	4	0.0456048706144795	1	1	NaN	146	3	20	1	121	221	321	NaN	521	0.43241782207042	1	1	NaN	2670202.8851061	NaN	2670203.8686029	2670204.38516738
22	21	0	0	90	36.1581920903955	36.241610738255	0	0	1	11	6	NaN	2	3	0.0456048706144795	1	1	NaN	147	3	21	1	111	211	311	NaN	511	0.266197969671339	2	1	NaN	2670205.6354999	NaN	2670206.618876	2670207.13542853
22	21	0	0	90	36.1581920903955	36.241610738255	9	0.300021011978388	2	12	6	NaN	2	5	0.0456048706144795	1	1	NaN	148	3	22	1	121	221	321	NaN	521	0.282609021756798	2	1	NaN	2670208.2190702	NaN	2670209.2024735	2670209.71901738
22	21	0	0	90	36.1581920903955	36.241610738255	22	0.73338469594717	2	11	3	NaN	2	3	0.0456048706144795	1	1	NaN	149	3	23	1	121	221	321	NaN	521	1.64307566964999	1	0	NaN	2670210.8026438	NaN	2670211.7861145	2670212.30261063
22	21	0	0	90	36.1581920903955	36.241610738255	22	0.73338469594717	2	2	5	NaN	1	3	0.0456048706144795	1	1	NaN	150	3	24	1	121	221	321	NaN	521	0.426906454842538	1	1	NaN	2670214.8030901	NaN	2670215.7863493	2670216.30300145
22	21	0	0	90	36.1581920903955	36.241610738255	8	0.266685343980789	2	3	3	NaN	1	4	0.0456048706144795	1	1	NaN	151	3	25	1	121	221	321	NaN	521	0.252961921971291	1	1	NaN	2670217.5366628	NaN	2670218.5200542	2670219.03660908
22	21	0	0	90	36.1581920903955	36.241610738255	12	0.400028015971184	2	6	1	NaN	1	3	0.0456048706144795	1	1	NaN	152	3	26	1	121	221	321	NaN	521	0.221976674627513	1	1	NaN	2670220.1034528	NaN	2670221.086973	2670221.60352903
22	21	0	0	90	36.1581920903955	36.241610738255	21	0.700049027949572	2	1	3	NaN	1	4	0.0456048706144795	1	1	NaN	153	3	27	1	121	221	321	NaN	521	0.97682311758399	1	1	NaN	2670222.637148	NaN	2670223.6205861	2670224.13710338
22	21	0	0	90	36.1581920903955	36.241610738255	13	0.433363683968782	2	4	1	NaN	1	4	0.0456048706144795	1	1	NaN	154	3	28	1	121	221	321	NaN	521	2.94899042230099	2	0	NaN	2670225.9208234	NaN	2670226.9042056	2670227.42075568
22	21	0	0	90	36.1581920903955	36.241610738255	14	0.466699351966381	2	6	3	NaN	1	3	0.0456048706144795	1	1	NaN	155	3	29	1	121	221	321	NaN	521	0.761571621987969	1	1	NaN	2670231.1879901	NaN	2670232.1714112	2670232.68795098
22	21	0	0	90	36.1581920903955	36.241610738255	13	0.433363683968782	2	10	1	NaN	2	4	0.0456048706144795	1	1	NaN	156	3	30	1	121	221	321	NaN	521	0.350657307077199	2	1	NaN	2670234.2549512	NaN	2670235.2383697	2670235.75491889
22	21	0	0	90	36.1581920903955	36.241610738255	22	0.73338469594717	2	7	4	NaN	2	3	0.0456048706144795	1	1	NaN	157	3	31	1	121	221	321	NaN	521	0.0103870220482349	2	1	NaN	2670236.9219003	NaN	2670237.9052979	2670238.42184698
22	21	0	0	90	36.1581920903955	36.241610738255	6	0.200014007985592	2	12	6	NaN	2	3	0.0456048706144795	1	1	NaN	158	3	32	1	121	221	321	NaN	521	0.270865794736892	2	1	NaN	2670239.2387852	NaN	2670240.2221891	2670240.73874231
22	21	0	0	90	36.1581920903955	36.241610738255	17	0.566706355959177	2	1	4	NaN	1	3	0.0456048706144795	1	1	NaN	159	3	33	1	121	221	321	NaN	521	0.615490622352809	1	1	NaN	2670241.8223663	NaN	2670242.8056643	2670243.32233088
22	21	0	0	90	36.1581920903955	36.241610738255	13	0.433363683968782	2	12	3	NaN	2	5	0.0456048706144795	1	1	NaN	160	3	34	1	121	221	321	NaN	521	0.264566170051694	2	1	NaN	2670245.1893874	NaN	2670246.1727689	2670246.68931863
22	21	0	0	90	36.1581920903955	36.241610738255	24	0.800056031942368	2	8	6	NaN	2	5	0.0456048706144795	1	1	NaN	161	3	35	1	121	221	321	NaN	521	0.273013622500002	2	1	NaN	2670247.7729627	NaN	2670248.7563555	2670249.27291768
22	21	0	0	90	36.1581920903955	36.241610738255	23	0.766720363944769	2	1	4	NaN	1	4	0.0456048706144795	1	1	NaN	162	3	36	1	121	221	321	NaN	521	0.393417222425342	1	1	NaN	2670250.3566171	NaN	2670251.3399381	2670251.85650148
22	21	0	0	90	36.1581920903955	36.241610738255	6	0.200014007985592	2	12	2	NaN	2	3	0.0456048706144795	1	1	NaN	163	3	37	1	121	221	321	NaN	521	0.236816422082484	2	1	NaN	2670253.056809	NaN	2670254.040197	2670254.55676768
22	21	0	0	90	36.1581920903955	36.241610738255	6	0.200014007985592	2	1	1	NaN	1	3	0.0456048706144795	1	1	NaN	164	3	38	1	121	221	321	NaN	521	0.313259369693696	1	1	NaN	2670255.7404033	NaN	2670256.723814	2670257.24036343
22	21	0	0	90	36.1581920903955	36.241610738255	14	0.466699351966381	2	12	1	NaN	2	4	0.0456048706144795	1	1	NaN	165	3	39	1	121	221	321	NaN	521	0.328008189797401	2	1	NaN	2670258.3739999	NaN	2670259.3574015	2670259.87396391
22	21	0	0	90	36.1581920903955	36.241610738255	14	0.466699351966381	2	4	3	NaN	1	4	0.0456048706144795	1	1	NaN	166	3	40	1	121	221	321	NaN	521	0.221958522219211	1	1	NaN	2670261.0074681	NaN	2670261.9910006	2670262.50755028
22	21	0	0	90	36.1581920903955	36.241610738255	20	0.666713359951973	2	10	5	NaN	2	3	0.0456048706144795	1	1	NaN	167	3	41	1	121	221	321	NaN	521	0.352623717393726	2	1	NaN	2670263.5411701	NaN	2670264.5245735	2670265.04112248
22	21	0	0	90	36.1581920903955	36.241610738255	18	0.600042023956776	2	3	3	NaN	1	4	0.0456048706144795	1	1	NaN	168	3	42	1	121	221	321	NaN	521	0.877482917159796	2	0	NaN	2670266.2081184	NaN	2670267.1915066	2670267.70806298
22	21	0	0	90	36.1581920903955	36.241610738255	15	0.50003501996398	2	4	2	NaN	1	3	0.0456048706144795	1	1	NaN	169	3	43	1	121	221	321	NaN	521	0.350341984536499	1	1	NaN	2670269.3917775	NaN	2670270.3751413	2670270.89171222
22	21	0	0	90	36.1581920903955	36.241610738255	17	0.566706355959177	2	2	4	NaN	1	3	0.0456048706144795	1	1	NaN	170	3	44	1	121	221	321	NaN	521	0.298975422047079	1	1	NaN	2670272.0586767	NaN	2670273.042089	2670273.55863708
22	21	0	0	90	36.1581920903955	36.241610738255	11	0.366692347973585	2	11	2	NaN	2	5	0.0456048706144795	1	1	NaN	171	3	45	1	121	221	321	NaN	521	0.394330822397023	2	1	NaN	2670274.6756162	NaN	2670275.6590146	2670276.17555888
22	21	0	0	90	36.1581920903955	36.241610738255	25	0.833391699939966	2	4	3	NaN	1	3	0.0456048706144795	1	1	NaN	172	3	46	1	121	221	321	NaN	521	0.285229422152042	1	1	NaN	2670277.392553	NaN	2670278.3759412	2670278.89251228
22	21	0	0	90	36.1581920903955	36.241610738255	17	0.566706355959177	2	11	3	NaN	2	5	0.0456048706144795	1	1	NaN	173	3	47	1	121	221	321	NaN	521	0.308930169790983	1	0	NaN	2670279.9928784	NaN	2670280.9761837	2670281.49274333
22	21	0	0	90	36.1581920903955	36.241610738255	9	0.300021011978388	2	11	6	NaN	2	4	0.0456048706144795	1	1	NaN	174	3	48	1	121	221	321	NaN	521	0.291886270046234	1	0	NaN	2670282.6096073	NaN	2670283.5931378	2670284.10967283
22	21	0	0	90	36.1581920903955	36.241610738255	24	0.800056031942368	2	9	3	NaN	2	5	0.0456048706144795	1	1	NaN	175	3	49	1	121	221	321	NaN	521	0.89202467026189	2	1	NaN	2670285.2099932	NaN	2670286.193362	2670286.70992773
22	21	0	0	90	36.1581920903955	36.241610738255	6	0.200014007985592	2	4	4	NaN	1	4	0.0456048706144795	1	1	NaN	176	3	50	1	121	221	321	NaN	521	0.243425422348082	1	1	NaN	2670288.4102933	NaN	2670289.3936905	2670289.91023758
22	21	0	0	90	36.1581920903955	36.241610738255	7	0.233349675983191	2	9	2	NaN	2	5	0.0456048706144795	1	1	NaN	177	3	51	1	121	221	321	NaN	521	0.309568022377789	2	1	NaN	2670290.9605318	NaN	2670291.9439345	2670292.46049728
22	21	0	0	90	36.1581920903955	36.241610738255	11	0.366692347973585	2	10	1	NaN	2	4	0.0456048706144795	1	1	NaN	178	3	52	1	121	221	321	NaN	521	0.387728822417557	1	0	NaN	2670293.5941357	NaN	2670294.577535	2670295.09408628
22	21	0	0	90	36.1581920903955	36.241610738255	6	0.200014007985592	2	11	2	NaN	2	4	0.0456048706144795	1	1	NaN	179	3	53	1	121	221	321	NaN	521	0.969825869891793	2	1	NaN	2670296.4277239	NaN	2670297.41114	2670297.92770763
22	21	0	0	90	36.1581920903955	36.241610738255	18	0.600042023956776	2	2	4	NaN	1	5	0.0456048706144795	1	1	NaN	180	3	54	1	121	221	321	NaN	521	0.0103934220969677	1	1	NaN	2670299.7113697	NaN	2670300.6948037	2670301.21135908
22	21	0	0	90	36.1581920903955	36.241610738255	6	0.200014007985592	2	11	4	NaN	2	5	0.0456048706144795	1	1	NaN	181	3	55	1	121	221	321	NaN	521	0.0104093700647354	2	1	NaN	2670302.0282429	NaN	2670303.0117113	2670303.52824833
22	21	0	0	90	36.1581920903955	36.241610738255	0	0	1	1	4	NaN	1	4	0.0456048706144795	1	1	NaN	182	3	56	1	111	211	311	NaN	511	0.252094322349876	1	1	NaN	2670304.3618692	NaN	2670305.3452692	2670305.86180428
22	21	0	0	90	36.1581920903955	36.241610738255	11	0.366692347973585	2	6	4	NaN	1	5	0.0456048706144795	1	1	NaN	183	3	57	1	121	221	321	NaN	521	0.317009021993726	1	1	NaN	2670306.9287775	NaN	2670307.9121729	2670308.42873348
22	21	0	0	90	36.1581920903955	36.241610738255	17	0.566706355959177	2	8	5	NaN	2	3	0.0456048706144795	1	1	NaN	184	3	58	1	121	221	321	NaN	521	0.315491322427988	2	1	NaN	2670309.5623668	NaN	2670310.5456631	2670311.06232398
22	21	0	0	90	36.1581920903955	36.241610738255	9	0.300021011978388	2	7	6	NaN	2	5	0.0456048706144795	1	1	NaN	185	3	59	1	121	221	321	NaN	521	0.297963017597795	2	1	NaN	2670312.1959593	NaN	2670313.1793708	2670313.69591038
22	21	0	0	90	36.1581920903955	36.241610738255	15	0.50003501996398	2	9	2	NaN	2	3	0.0456048706144795	1	1	NaN	186	3	60	1	121	221	321	NaN	521	0.272788417525589	1	0	NaN	2670314.8129081	NaN	2670315.7962932	2670316.31283038
22	21	0	0	90	36.1581920903955	36.241610738255	0	0	1	7	2	NaN	2	5	0.0456048706144795	1	1	NaN	187	3	61	1	111	211	311	NaN	511	0.849636022467166	2	1	NaN	2670317.3964919	NaN	2670318.3798633	2670318.89642788
22	21	0	0	90	36.1581920903955	36.241610738255	24	0.800056031942368	2	3	4	NaN	1	3	0.0456048706144795	1	1	NaN	188	3	62	1	121	221	321	NaN	521	0.306261422112584	1	1	NaN	2670320.5634636	NaN	2670321.5468538	2670322.06340758
22	21	0	0	90	36.1581920903955	36.241610738255	13	0.433363683968782	2	3	5	NaN	1	4	0.0456048706144795	1	1	NaN	189	3	63	1	121	221	321	NaN	521	0.457506475038826	2	0	NaN	2670323.1804088	NaN	2670324.1637756	2670324.68033213
22	21	0	0	90	36.1581920903955	36.241610738255	12	0.400028015971184	2	10	3	NaN	2	5	0.0456048706144795	1	1	NaN	190	4	1	1	121	221	321	NaN	521	4.25416916981339	2	1	NaN	2670335.8316295	NaN	2670336.8150207	2670337.33157153
22	21	0	0	90	36.1581920903955	36.241610738255	17	0.566706355959177	2	1	2	NaN	1	4	0.0456048706144795	1	1	NaN	191	4	2	1	121	221	321	NaN	521	0.326958269812167	1	1	NaN	2670342.3989524	NaN	2670343.3823566	2670343.89887563
22	21	0	0	90	36.1581920903955	36.241610738255	18	0.600042023956776	2	11	3	NaN	2	3	0.0456048706144795	1	1	NaN	192	4	3	1	121	221	321	NaN	521	1.46949267480522	1	0	NaN	2670345.0325872	NaN	2670346.0159112	2670346.53247133
22	21	0	0	90	36.1581920903955	36.241610738255	25	0.833391699939966	2	11	3	NaN	2	5	0.0456048706144795	1	1	NaN	193	4	4	1	121	221	321	NaN	521	1.55787962209433	2	1	NaN	2670348.8162314	NaN	2670349.7996379	2670350.31618538
22	21	0	0	90	36.1581920903955	36.241610738255	14	0.466699351966381	2	8	6	NaN	2	5	0.0456048706144795	1	1	NaN	194	4	5	1	121	221	321	NaN	521	0.858910622540861	2	1	NaN	2670352.6832668	NaN	2670353.6666677	2670354.18322478
22	21	0	0	90	36.1581920903955	36.241610738255	14	0.466699351966381	2	2	5	NaN	1	5	0.0456048706144795	1	1	NaN	195	4	6	1	121	221	321	NaN	521	0.291656917426735	1	1	NaN	2670355.8502754	NaN	2670356.8336585	2670357.35020548
22	21	0	0	90	36.1581920903955	36.241610738255	9	0.300021011978388	2	3	4	NaN	1	5	0.0456048706144795	1	1	NaN	196	4	7	1	121	221	321	NaN	521	0.403357017319649	1	1	NaN	2670358.4505169	NaN	2670359.4338973	2670359.95045398
22	21	0	0	90	36.1581920903955	36.241610738255	0	0	1	9	2	NaN	2	4	0.0456048706144795	1	1	NaN	197	4	8	1	111	211	311	NaN	511	0.60634952224791	1	0	NaN	2670361.1674389	NaN	2670362.1508481	2670362.66739808
22	21	0	0	90	36.1581920903955	36.241610738255	15	0.50003501996398	2	7	6	NaN	2	3	0.0456048706144795	1	1	NaN	198	4	9	1	121	221	321	NaN	521	0.297318670433015	2	1	NaN	2670364.0843825	NaN	2670365.0677916	2670365.58434673
22	21	0	0	90	36.1581920903955	36.241610738255	16	0.533370687961578	2	7	4	NaN	2	5	0.0456048706144795	1	1	NaN	199	4	10	1	121	221	321	NaN	521	0.600642869714648	2	1	NaN	2670366.7013258	NaN	2670367.684725	2670368.20126873
22	21	0	0	90	36.1581920903955	36.241610738255	0	0	1	3	1	NaN	1	4	0.0456048706144795	1	1	NaN	200	4	11	1	111	211	311	NaN	511	0.387624569702893	1	1	NaN	2670369.6183213	NaN	2670370.6016707	2670371.11821913
22	21	0	0	90	36.1581920903955	36.241610738255	6	0.200014007985592	2	1	5	NaN	1	5	0.0456048706144795	1	1	NaN	201	4	12	1	121	221	321	NaN	521	0.36757281748578	1	1	NaN	2670372.318541	NaN	2670373.3019394	2670373.81848428
22	21	0	0	90	36.1581920903955	36.241610738255	24	0.800056031942368	2	10	2	NaN	2	3	0.0456048706144795	1	1	NaN	202	4	13	1	121	221	321	NaN	521	0.847640099935234	2	1	NaN	2670375.5021616	NaN	2670376.4855864	2670377.0021249
22	21	0	0	90	36.1581920903955	36.241610738255	10	0.333356679975987	2	1	5	NaN	1	4	0.0456048706144795	1	1	NaN	203	4	14	1	121	221	321	NaN	521	0.408600970171392	1	1	NaN	2670378.6691753	NaN	2670379.652622	2670380.16911053
22	21	0	0	90	36.1581920903955	36.241610738255	24	0.800056031942368	2	11	2	NaN	2	5	0.0456048706144795	1	1	NaN	204	4	15	1	121	221	321	NaN	521	0.451869942713529	1	0	NaN	2670381.3861035	NaN	2670382.3695014	2670382.88605026
22	21	0	0	90	36.1581920903955	36.241610738255	11	0.366692347973585	2	7	6	NaN	2	3	0.0456048706144795	1	1	NaN	205	4	16	1	121	221	321	NaN	521	0.476824769750237	2	1	NaN	2670384.1530344	NaN	2670385.1364353	2670385.65299233
22	21	0	0	90	36.1581920903955	36.241610738255	18	0.600042023956776	2	6	4	NaN	1	3	0.0456048706144795	1	1	NaN	206	4	17	1	121	221	321	NaN	521	1.5894814748317	2	0	NaN	2670386.9366396	NaN	2670387.9200333	2670388.43660163
22	21	0	0	90	36.1581920903955	36.241610738255	0	0	1	6	1	NaN	1	5	0.0456048706144795	1	1	NaN	207	4	18	1	111	211	311	NaN	511	0.465161222498864	1	1	NaN	2670390.8370403	NaN	2670391.8204163	2670392.33698028
22	21	0	0	90	36.1581920903955	36.241610738255	23	0.766720363944769	2	5	3	NaN	1	5	0.0456048706144795	1	1	NaN	208	4	19	1	121	221	321	NaN	521	0.409537570085377	1	1	NaN	2670393.6206451	NaN	2670394.6040222	2670395.12058063
22	21	0	0	90	36.1581920903955	36.241610738255	9	0.300021011978388	2	2	3	NaN	1	5	0.0456048706144795	1	1	NaN	209	4	20	1	121	221	321	NaN	521	1.45259582204744	2	0	NaN	2670396.3376181	NaN	2670397.3209693	2670397.83751728
22	21	0	0	90	36.1581920903955	36.241610738255	16	0.533370687961578	2	11	4	NaN	2	5	0.0456048706144795	1	1	NaN	210	4	21	1	121	221	321	NaN	521	1.26913941744715	1	0	NaN	2670400.1045584	NaN	2670401.0880331	2670401.60455748
22	21	0	0	90	36.1581920903955	36.241610738255	19	0.633377691954374	2	10	3	NaN	2	5	0.0456048706144795	1	1	NaN	211	4	22	1	121	221	321	NaN	521	1.11794242216274	2	1	NaN	2670403.6882838	NaN	2670404.6716901	2670405.18824138
22	21	0	0	90	36.1581920903955	36.241610738255	7	0.233349675983191	2	5	4	NaN	1	5	0.0456048706144795	1	1	NaN	212	4	23	1	121	221	321	NaN	521	0.348426621872932	1	1	NaN	2670407.1219038	NaN	2670408.1054095	2670408.62191758
22	21	0	0	90	36.1581920903955	36.241610738255	17	0.566706355959177	2	5	2	NaN	1	3	0.0456048706144795	1	1	NaN	213	4	24	1	121	221	321	NaN	521	1.06565762218088	1	1	NaN	2670409.7722173	NaN	2670410.7555362	2670411.27217208
22	21	0	0	90	36.1581920903955	36.241610738255	7	0.233349675983191	2	8	6	NaN	2	3	0.0456048706144795	1	1	NaN	214	4	25	1	121	221	321	NaN	521	0.33065352216363	2	1	NaN	2670413.1392192	NaN	2670414.1226097	2670414.63917508
22	21	0	0	90	36.1581920903955	36.241610738255	23	0.766720363944769	2	3	6	NaN	1	5	0.0456048706144795	1	1	NaN	215	4	26	1	121	221	321	NaN	521	0.577493417076766	1	1	NaN	2670415.7728093	NaN	2670416.7562125	2670417.27275598
22	21	0	0	90	36.1581920903955	36.241610738255	9	0.300021011978388	2	2	1	NaN	1	3	0.0456048706144795	1	1	NaN	216	4	27	1	121	221	321	NaN	521	0.285542142577469	1	1	NaN	2670418.6564254	NaN	2670419.6398202	2670420.15638756
22	21	0	0	90	36.1581920903955	36.241610738255	17	0.566706355959177	2	3	5	NaN	1	3	0.0456048706144795	1	1	NaN	217	4	28	1	121	221	321	NaN	521	0.889871027320623	1	1	NaN	2670421.7400521	NaN	2670422.7234465	2670423.24002187
22	21	0	0	90	36.1581920903955	36.241610738255	14	0.466699351966381	2	5	6	NaN	1	5	0.0456048706144795	1	1	NaN	218	4	29	1	121	221	321	NaN	521	0.385974670294672	1	1	NaN	2670424.9403922	NaN	2670425.9237739	2670426.44032563
22	21	0	0	90	36.1581920903955	36.241610738255	25	0.833391699939966	2	3	5	NaN	1	4	0.0456048706144795	1	1	NaN	219	4	30	1	121	221	321	NaN	521	0.813198664691299	1	1	NaN	2670427.6406534	NaN	2670428.6240522	2670429.14058634
22	21	0	0	90	36.1581920903955	36.241610738255	21	0.700049027949572	2	7	5	NaN	2	5	0.0456048706144795	1	1	NaN	220	4	31	1	121	221	321	NaN	521	1.32063389010727	2	1	NaN	2670430.7576221	NaN	2670431.7410032	2670432.25756851
22	21	0	0	90	36.1581920903955	36.241610738255	8	0.266685343980789	2	12	3	NaN	2	3	0.0456048706144795	1	1	NaN	221	4	32	1	121	221	321	NaN	521	0.391003122087568	2	1	NaN	2670434.391314	NaN	2670435.3747038	2670435.89126368
22	21	0	0	90	36.1581920903955	36.241610738255	23	0.766720363944769	2	7	5	NaN	2	5	0.0456048706144795	1	1	NaN	222	4	33	1	121	221	321	NaN	521	0.498715970199555	2	1	NaN	2670437.0915825	NaN	2670438.0749625	2670438.59151763
22	21	0	0	90	36.1581920903955	36.241610738255	16	0.533370687961578	2	4	5	NaN	1	4	0.0456048706144795	1	1	NaN	223	4	34	1	121	221	321	NaN	521	0.337524570059031	1	1	NaN	2670439.908527	NaN	2670440.891924	2670441.40846043
22	21	0	0	90	36.1581920903955	36.241610738255	9	0.300021011978388	2	7	4	NaN	2	3	0.0456048706144795	1	1	NaN	224	4	35	1	121	221	321	NaN	521	1.4231778900139	1	0	NaN	2670442.5587816	NaN	2670443.5421732	2670444.05872541
22	21	0	0	90	36.1581920903955	36.241610738255	19	0.633377691954374	2	9	5	NaN	2	5	0.0456048706144795	1	1	NaN	225	4	36	1	121	221	321	NaN	521	0.377846142277122	2	1	NaN	2670446.2924754	NaN	2670447.2759078	2670447.79243946
22	21	0	0	90	36.1581920903955	36.241610738255	8	0.266685343980789	2	2	2	NaN	1	4	0.0456048706144795	1	1	NaN	226	4	37	1	121	221	321	NaN	521	0.461212574504316	1	1	NaN	2670448.9927321	NaN	2670449.9761327	2670450.49268803
22	21	0	0	90	36.1581920903955	36.241610738255	24	0.800056031942368	2	7	5	NaN	2	5	0.0456048706144795	1	1	NaN	227	4	38	1	121	221	321	NaN	521	0.849342569708824	2	1	NaN	2670452.0929408	NaN	2670453.0764469	2670453.59299293
22	21	0	0	90	36.1581920903955	36.241610738255	12	0.400028015971184	2	1	6	NaN	1	5	0.0456048706144795	1	1	NaN	228	4	39	1	121	221	321	NaN	521	0.497983022127301	1	1	NaN	2670455.2600231	NaN	2670456.2434262	2670456.75998088
22	21	0	0	90	36.1581920903955	36.241610738255	20	0.666713359951973	2	5	4	NaN	1	3	0.0456048706144795	1	1	NaN	229	4	40	1	121	221	321	NaN	521	0.576937722042203	1	1	NaN	2670458.0769842	NaN	2670459.0603742	2670459.57694648
22	21	0	0	90	36.1581920903955	36.241610738255	15	0.50003501996398	2	10	6	NaN	2	5	0.0456048706144795	1	1	NaN	230	4	41	1	121	221	321	NaN	521	0.589582421816885	1	0	NaN	2670460.960604	NaN	2670461.9440345	2670462.46054238
22	21	0	0	90	36.1581920903955	36.241610738255	10	0.333356679975987	2	11	1	NaN	2	5	0.0456048706144795	1	1	NaN	231	4	42	1	121	221	321	NaN	521	0.681171869859099	1	0	NaN	2670463.8608789	NaN	2670464.8442852	2670465.36082213
22	21	0	0	90	36.1581920903955	36.241610738255	16	0.533370687961578	2	1	6	NaN	1	4	0.0456048706144795	1	1	NaN	232	4	43	1	121	221	321	NaN	521	0.752673821989447	2	0	NaN	2670466.8611725	NaN	2670467.844568	2670468.36112368
22	21	0	0	90	36.1581920903955	36.241610738255	20	0.666713359951973	2	11	2	NaN	2	4	0.0456048706144795	1	1	NaN	233	4	44	1	121	221	321	NaN	521	0.368781995028257	2	1	NaN	2670470.2614912	NaN	2670471.2449002	2670471.76145951
22	21	0	0	90	36.1581920903955	36.241610738255	21	0.700049027949572	2	5	2	NaN	1	4	0.0456048706144795	1	1	NaN	234	4	45	1	121	221	321	NaN	521	1.55698422249407	2	0	NaN	2670472.9450995	NaN	2670473.9285724	2670474.44505498
22	21	0	0	90	36.1581920903955	36.241610738255	11	0.366692347973585	2	4	3	NaN	1	4	0.0456048706144795	1	1	NaN	235	4	46	1	121	221	321	NaN	521	0.378220069687814	1	1	NaN	2670476.8120806	NaN	2670477.7954337	2670478.31209103
22	21	0	0	90	36.1581920903955	36.241610738255	13	0.433363683968782	2	2	5	NaN	1	3	0.0456048706144795	1	1	NaN	236	4	47	1	121	221	321	NaN	521	1.35027811769396	1	1	NaN	2670479.4957437	NaN	2670480.4791425	2670480.99568758
22	21	0	0	90	36.1581920903955	36.241610738255	7	0.233349675983191	2	6	3	NaN	1	5	0.0456048706144795	1	1	NaN	237	4	48	1	121	221	321	NaN	521	0.331443122122437	1	1	NaN	2670483.1627646	NaN	2670484.1461813	2670484.66272488
22	21	0	0	90	36.1581920903955	36.241610738255	23	0.766720363944769	2	11	4	NaN	2	4	0.0456048706144795	1	1	NaN	238	4	49	1	121	221	321	NaN	521	0.617946621961892	1	0	NaN	2670485.7963967	NaN	2670486.7797578	2670487.29631638
22	21	0	0	90	36.1581920903955	36.241610738255	12	0.400028015971184	2	12	5	NaN	2	3	0.0456048706144795	1	1	NaN	239	4	50	1	121	221	321	NaN	521	0.660323190037161	1	0	NaN	2670488.7299934	NaN	2670489.7133885	2670490.22994251
22	21	0	0	90	36.1581920903955	36.241610738255	10	0.333356679975987	2	10	2	NaN	2	3	0.0456048706144795	1	1	NaN	240	4	51	1	121	221	321	NaN	521	0.277375317178667	2	1	NaN	2670491.6968147	NaN	2670492.6803269	2670493.19688378
22	21	0	0	90	36.1581920903955	36.241610738255	25	0.833391699939966	2	4	3	NaN	1	5	0.0456048706144795	1	1	NaN	241	4	52	1	121	221	321	NaN	521	0.429715369828045	1	1	NaN	2670494.2805354	NaN	2670495.2639735	2670495.78048013
22	21	0	0	90	36.1581920903955	36.241610738255	6	0.200014007985592	2	9	5	NaN	2	5	0.0456048706144795	1	1	NaN	242	4	53	1	121	221	321	NaN	521	0.342946707271039	2	1	NaN	2670497.0306805	NaN	2670498.0142433	2670498.53074039
22	21	0	0	90	36.1581920903955	36.241610738255	7	0.233349675983191	2	8	3	NaN	2	4	0.0456048706144795	1	1	NaN	243	4	54	1	121	221	321	NaN	521	0.357281354721636	2	1	NaN	2670499.6810665	NaN	2670500.6644616	2670501.18100485
22	21	0	0	90	36.1581920903955	36.241610738255	12	0.400028015971184	2	9	1	NaN	2	5	0.0456048706144795	1	1	NaN	244	4	55	1	121	221	321	NaN	521	0.362300122156739	1	0	NaN	2670502.3480082	NaN	2670503.3313875	2670503.84794228
22	21	0	0	90	36.1581920903955	36.241610738255	25	0.833391699939966	2	1	4	NaN	1	3	0.0456048706144795	1	1	NaN	245	4	56	1	121	221	321	NaN	521	0.942964722402394	2	0	NaN	2670505.0149309	NaN	2670505.9983171	2670506.51487908
22	21	0	0	90	36.1581920903955	36.241610738255	24	0.800056031942368	2	5	5	NaN	1	4	0.0456048706144795	1	1	NaN	246	4	57	1	121	221	321	NaN	521	4.06890696985647	1	1	NaN	2670508.2651003	NaN	2670509.2486734	2670509.76518563
22	21	0	0	90	36.1581920903955	36.241610738255	0	0	1	10	3	NaN	2	5	0.0456048706144795	1	1	NaN	247	4	58	1	111	211	311	NaN	511	0.797156421933323	1	0	NaN	2670514.6491991	NaN	2670515.6325955	2670516.14914918
22	21	0	0	90	36.1581920903955	36.241610738255	24	0.800056031942368	2	9	6	NaN	2	5	0.0456048706144795	1	1	NaN	248	4	59	1	121	221	321	NaN	521	0.295848417561501	2	1	NaN	2670517.7661632	NaN	2670518.7495583	2670519.26611528
22	21	0	0	90	36.1581920903955	36.241610738255	24	0.800056031942368	2	4	2	NaN	1	3	0.0456048706144795	1	1	NaN	249	4	60	1	121	221	321	NaN	521	0.0956805222667754	2	0	NaN	2670520.3664219	NaN	2670521.3498304	2670521.86637858
22	21	0	0	90	36.1581920903955	36.241610738255	13	0.433363683968782	2	9	2	NaN	2	4	0.0456048706144795	1	1	NaN	250	4	61	1	121	221	321	NaN	521	2.41549881733954	2	1	NaN	2670522.7666566	NaN	2670523.7500568	2670524.26660668
22	21	0	0	90	36.1581920903955	36.241610738255	22	0.73338469594717	2	10	2	NaN	2	4	0.0456048706144795	1	1	NaN	251	4	62	1	121	221	321	NaN	521	0.353580064605922	2	1	NaN	2670527.5004898	NaN	2670528.4838866	2670529.00040164
22	21	0	0	90	36.1581920903955	36.241610738255	6	0.200014007985592	2	9	6	NaN	2	3	0.0456048706144795	1	1	NaN	252	4	63	1	121	221	321	NaN	521	0.470979869831353	2	1	NaN	2670530.1674193	NaN	2670531.1507817	2670531.66734003
22	21	0	0	90	36.1581920903955	36.241610738255	13	0.433363683968782	2	1	3	NaN	1	3	0.0456048706144795	1	1	NaN	253	5	1	1	121	221	321	NaN	521	0.784928970038891	1	1	NaN	2670541.8852082	NaN	2670542.8684952	2670543.38515433
22	21	0	0	90	36.1581920903955	36.241610738255	11	0.366692347973585	2	9	2	NaN	2	4	0.0456048706144795	1	1	NaN	254	5	2	1	121	221	321	NaN	521	0.32480373699218	2	1	NaN	2670544.9855214	NaN	2670545.9689038	2670546.48546706
22	21	0	0	90	36.1581920903955	36.241610738255	16	0.533370687961578	2	6	3	NaN	1	5	0.0456048706144795	1	1	NaN	255	5	3	1	121	221	321	NaN	521	0.315244922414422	1	1	NaN	2670547.6191017	NaN	2670548.6025002	2670549.11905858
22	21	0	0	90	36.1581920903955	36.241610738255	14	0.466699351966381	2	1	6	NaN	1	3	0.0456048706144795	1	1	NaN	256	5	4	1	121	221	321	NaN	521	0.385748921893537	1	1	NaN	2670550.2527602	NaN	2670551.2360944	2670551.75264458
22	21	0	0	90	36.1581920903955	36.241610738255	23	0.766720363944769	2	9	6	NaN	2	4	0.0456048706144795	1	1	NaN	257	5	5	1	121	221	321	NaN	521	0.365009370259941	2	1	NaN	2670552.9529545	NaN	2670553.9363571	2670554.45291403
22	21	0	0	90	36.1581920903955	36.241610738255	19	0.633377691954374	2	6	2	NaN	1	4	0.0456048706144795	1	1	NaN	258	5	6	1	121	221	321	NaN	521	5.72443674271926	1	1	NaN	2670556.1699145	NaN	2670557.1533292	2670557.66989456
22	21	0	0	90	36.1581920903955	36.241610738255	18	0.600042023956776	2	11	1	NaN	2	4	0.0456048706144795	1	1	NaN	259	5	7	1	121	221	321	NaN	521	0.866175622213632	2	1	NaN	2670564.2040493	NaN	2670565.1874611	2670565.70401428
22	21	0	0	90	36.1581920903955	36.241610738255	0	0	1	4	2	NaN	1	4	0.0456048706144795	1	1	NaN	260	5	8	1	111	211	311	NaN	511	1.61876626964658	2	0	NaN	2670567.387723	NaN	2670568.3711153	2670568.88766673
22	21	0	0	90	36.1581920903955	36.241610738255	23	0.766720363944769	2	3	1	NaN	1	5	0.0456048706144795	1	1	NaN	261	5	9	1	121	221	321	NaN	521	1.03706227010116	1	1	NaN	2670571.3214835	NaN	2670572.304835	2670572.82137963
22	21	0	0	90	36.1581920903955	36.241610738255	6	0.200014007985592	2	8	1	NaN	2	3	0.0456048706144795	1	1	NaN	262	5	10	1	121	221	321	NaN	521	0.270436970051378	2	1	NaN	2670574.6717809	NaN	2670575.6551804	2670576.17170663
22	21	0	0	90	36.1581920903955	36.241610738255	19	0.633377691954374	2	1	3	NaN	1	4	0.0456048706144795	1	1	NaN	263	5	11	1	121	221	321	NaN	521	0.286859522107989	1	1	NaN	2670577.2552285	NaN	2670578.2387508	2670578.75530558
22	21	0	0	90	36.1581920903955	36.241610738255	17	0.566706355959177	2	12	6	NaN	2	3	0.0456048706144795	1	1	NaN	264	5	12	1	121	221	321	NaN	521	0.254660422448069	2	1	NaN	2670579.8555989	NaN	2670580.8390208	2670581.35555998
22	21	0	0	90	36.1581920903955	36.241610738255	13	0.433363683968782	2	8	6	NaN	2	4	0.0456048706144795	1	1	NaN	265	5	13	1	121	221	321	NaN	521	0.599316821899265	2	1	NaN	2670582.4391809	NaN	2670583.4225907	2670583.93914748
22	21	0	0	90	36.1581920903955	36.241610738255	8	0.266685343980789	2	1	6	NaN	1	5	0.0456048706144795	1	1	NaN	266	5	14	1	121	221	321	NaN	521	0.0103350328281522	1	1	NaN	2670585.3561546	NaN	2670586.3395438	2670586.85609117
22	21	0	0	90	36.1581920903955	36.241610738255	19	0.633377691954374	2	3	5	NaN	1	4	0.0456048706144795	1	1	NaN	267	5	15	1	121	221	321	NaN	521	0.268390770070255	2	0	NaN	2670587.6897182	NaN	2670588.6731143	2670589.18965293
22	21	0	0	90	36.1581920903955	36.241610738255	19	0.633377691954374	2	11	5	NaN	2	4	0.0456048706144795	1	1	NaN	268	5	16	1	121	221	321	NaN	521	0.388845722191036	2	1	NaN	2670590.2733071	NaN	2670591.256695	2670591.77324928
22	21	0	0	90	36.1581920903955	36.241610738255	10	0.333356679975987	2	9	1	NaN	2	3	0.0456048706144795	1	1	NaN	269	5	17	1	121	221	321	NaN	521	0.416628122329712	2	1	NaN	2670592.9735474	NaN	2670593.9569459	2670594.47351648
22	21	0	0	90	36.1581920903955	36.241610738255	7	0.233349675983191	2	10	2	NaN	2	3	0.0456048706144795	1	1	NaN	270	5	18	1	121	221	321	NaN	521	0.299259569961578	2	1	NaN	2670595.7071641	NaN	2670596.6905727	2670597.20711583
22	21	0	0	90	36.1581920903955	36.241610738255	8	0.266685343980789	2	9	3	NaN	2	5	0.0456048706144795	1	1	NaN	271	5	19	1	121	221	321	NaN	521	0.418066270183772	2	1	NaN	2670598.3240779	NaN	2670599.3074771	2670599.82403463
22	21	0	0	90	36.1581920903955	36.241610738255	12	0.400028015971184	2	7	4	NaN	2	3	0.0456048706144795	1	1	NaN	272	5	20	1	121	221	321	NaN	521	0.0104074217379093	1	0	NaN	2670601.0576925	NaN	2670602.0411375	2670602.55764488
22	21	0	0	90	36.1581920903955	36.241610738255	25	0.833391699939966	2	10	3	NaN	2	5	0.0456048706144795	1	1	NaN	273	5	21	1	121	221	321	NaN	521	0.263750927522779	2	1	NaN	2670603.3745935	NaN	2670604.3579689	2670604.87453697
22	21	0	0	90	36.1581920903955	36.241610738255	25	0.833391699939966	2	10	3	NaN	2	5	0.0456048706144795	1	1	NaN	274	5	22	1	121	221	321	NaN	521	1.27989022200927	1	0	NaN	2670605.9581774	NaN	2670606.9415791	2670607.45812498
22	21	0	0	90	36.1581920903955	36.241610738255	7	0.233349675983191	2	9	6	NaN	2	3	0.0456048706144795	1	1	NaN	275	5	23	1	121	221	321	NaN	521	0.448202270083129	1	0	NaN	2670609.5418786	NaN	2670610.5252717	2670611.04180623
22	21	0	0	90	36.1581920903955	36.241610738255	7	0.233349675983191	2	4	6	NaN	1	4	0.0456048706144795	1	1	NaN	276	5	24	1	121	221	321	NaN	521	0.265771322418004	1	1	NaN	2670612.3087017	NaN	2670613.2921945	2670613.80874658
22	21	0	0	90	36.1581920903955	36.241610738255	16	0.533370687961578	2	8	2	NaN	2	3	0.0456048706144795	1	1	NaN	277	5	25	1	121	221	321	NaN	521	1.06868771743029	1	0	NaN	2670615.4257546	NaN	2670616.4091579	2670616.92570888
22	21	0	0	90	36.1581920903955	36.241610738255	17	0.566706355959177	2	11	2	NaN	2	3	0.0456048706144795	1	1	NaN	278	5	26	1	121	221	321	NaN	521	0.692862969823182	1	0	NaN	2670618.8094384	NaN	2670619.7928525	2670620.30938263
22	21	0	0	90	36.1581920903955	36.241610738255	15	0.50003501996398	2	1	5	NaN	1	5	0.0456048706144795	1	1	NaN	279	5	27	1	121	221	321	NaN	521	0.32430408988148	1	1	NaN	2670621.8097211	NaN	2670622.793124	2670623.30968551
22	21	0	0	90	36.1581920903955	36.241610738255	22	0.73338469594717	2	3	2	NaN	1	5	0.0456048706144795	1	1	NaN	280	5	28	1	121	221	321	NaN	521	1.62639461737126	1	1	NaN	2670625.0600176	NaN	2670626.0434498	2670626.55998988
22	21	0	0	90	36.1581920903955	36.241610738255	11	0.366692347973585	2	12	3	NaN	2	3	0.0456048706144795	1	1	NaN	281	5	29	1	121	221	321	NaN	521	1.26933102170005	2	1	NaN	2670629.5771394	NaN	2670630.5605526	2670631.07711358
22	21	0	0	90	36.1581920903955	36.241610738255	19	0.633377691954374	2	4	4	NaN	1	5	0.0456048706144795	1	1	NaN	282	5	30	1	121	221	321	NaN	521	0.901451569981873	1	1	NaN	2670633.1608415	NaN	2670634.1442429	2670634.66079053
22	21	0	0	90	36.1581920903955	36.241610738255	13	0.433363683968782	2	11	4	NaN	2	4	0.0456048706144795	1	1	NaN	283	5	31	1	121	221	321	NaN	521	1.94809937011451	1	0	NaN	2670636.3778293	NaN	2670637.3612293	2670637.87777363
22	21	0	0	90	36.1581920903955	36.241610738255	16	0.533370687961578	2	5	6	NaN	1	3	0.0456048706144795	1	1	NaN	284	5	32	1	121	221	321	NaN	521	1.48911747010425	1	1	NaN	2670640.6449235	NaN	2670641.6283138	2670642.14485503
22	21	0	0	90	36.1581920903955	36.241610738255	7	0.233349675983191	2	7	6	NaN	2	3	0.0456048706144795	1	1	NaN	285	5	33	1	121	221	321	NaN	521	0.0103896223008633	2	1	NaN	2670644.4453041	NaN	2670645.4287001	2670645.94523708
22	21	0	0	90	36.1581920903955	36.241610738255	25	0.833391699939966	2	12	4	NaN	2	3	0.0456048706144795	1	1	NaN	286	5	34	1	121	221	321	NaN	521	0.560133564751595	2	1	NaN	2670647.2622633	NaN	2670648.2456264	2670648.76217364
22	21	0	0	90	36.1581920903955	36.241610738255	20	0.666713359951973	2	4	6	NaN	1	3	0.0456048706144795	1	1	NaN	287	5	35	1	121	221	321	NaN	521	0.701000827364624	1	1	NaN	2670650.1292063	NaN	2670651.112575	2670651.62912937
22	21	0	0	90	36.1581920903955	36.241610738255	9	0.300021011978388	2	8	6	NaN	2	3	0.0456048706144795	1	1	NaN	288	5	36	1	121	221	321	NaN	521	0.372429422102869	2	1	NaN	2670653.1461464	NaN	2670654.1295469	2670654.64608278
22	21	0	0	90	36.1581920903955	36.241610738255	22	0.73338469594717	2	4	4	NaN	1	3	0.0456048706144795	1	1	NaN	289	5	37	1	121	221	321	NaN	521	0.384692522231489	1	1	NaN	2670655.8297306	NaN	2670656.8131269	2670657.32968208
22	21	0	0	90	36.1581920903955	36.241610738255	0	0	1	7	3	NaN	2	4	0.0456048706144795	1	1	NaN	290	5	38	1	111	211	311	NaN	511	1.9802515800111	1	0	NaN	2670658.5299903	NaN	2670659.5134009	2670660.02995882
22	21	0	0	90	36.1581920903955	36.241610738255	15	0.50003501996398	2	4	4	NaN	1	5	0.0456048706144795	1	1	NaN	291	5	39	1	121	221	321	NaN	521	0.48074617004022	1	1	NaN	2670662.813766	NaN	2670663.7971459	2670664.31370663
22	21	0	0	90	36.1581920903955	36.241610738255	0	0	1	12	1	NaN	2	5	0.0456048706144795	1	1	NaN	292	5	40	1	111	211	311	NaN	511	0.600432222243398	1	0	NaN	2670665.6140181	NaN	2670666.59742	2670667.11398228
22	21	0	0	90	36.1581920903955	36.241610738255	9	0.300021011978388	2	10	6	NaN	2	3	0.0456048706144795	1	1	NaN	293	5	41	1	121	221	321	NaN	521	1.17130571743473	2	1	NaN	2670668.5309928	NaN	2670669.5143879	2670670.03093218
22	21	0	0	90	36.1581920903955	36.241610738255	7	0.233349675983191	2	1	1	NaN	1	4	0.0456048706144795	1	1	NaN	294	5	42	1	121	221	321	NaN	521	0.743899222463369	1	1	NaN	2670672.0146566	NaN	2670672.9980615	2670673.51461208
22	21	0	0	90	36.1581920903955	36.241610738255	24	0.800056031942368	2	7	3	NaN	2	3	0.0456048706144795	1	1	NaN	295	5	43	1	121	221	321	NaN	521	0.573522822465748	1	0	NaN	2670675.0649499	NaN	2670676.0483534	2670676.56490588
22	21	0	0	90	36.1581920903955	36.241610738255	10	0.333356679975987	2	5	6	NaN	1	4	0.0456048706144795	1	1	NaN	296	5	44	1	121	221	321	NaN	521	0.281778232660145	2	0	NaN	2670677.9485096	NaN	2670678.9319742	2670679.44852217
22	21	0	0	90	36.1581920903955	36.241610738255	18	0.600042023956776	2	10	5	NaN	2	4	0.0456048706144795	1	1	NaN	297	5	45	1	121	221	321	NaN	521	0.682108170352876	2	1	NaN	2670680.5320424	NaN	2670681.5155872	2670682.03210683
22	21	0	0	90	36.1581920903955	36.241610738255	8	0.266685343980789	2	9	1	NaN	2	3	0.0456048706144795	1	1	NaN	298	5	46	1	121	221	321	NaN	521	0.937689074780792	2	1	NaN	2670683.5324643	NaN	2670684.5158703	2670685.03241563
22	21	0	0	90	36.1581920903955	36.241610738255	17	0.566706355959177	2	10	6	NaN	2	4	0.0456048706144795	1	1	NaN	299	5	47	1	121	221	321	NaN	521	1.42344392230734	2	1	NaN	2670686.7827891	NaN	2670687.7662303	2670688.28273408
22	21	0	0	90	36.1581920903955	36.241610738255	24	0.800056031942368	2	12	2	NaN	2	5	0.0456048706144795	1	1	NaN	300	5	48	1	121	221	321	NaN	521	0.92976662190631	1	0	NaN	2670690.5165001	NaN	2670691.4998789	2670692.01642768
22	21	0	0	90	36.1581920903955	36.241610738255	15	0.50003501996398	2	11	1	NaN	2	5	0.0456048706144795	1	1	NaN	301	5	49	1	121	221	321	NaN	521	0.687336622271687	1	0	NaN	2670693.7667995	NaN	2670694.7502325	2670695.26675208
22	21	0	0	90	36.1581920903955	36.241610738255	13	0.433363683968782	2	6	6	NaN	1	4	0.0456048706144795	1	1	NaN	302	5	50	1	121	221	321	NaN	521	0.343291270080954	1	1	NaN	2670696.7670825	NaN	2670697.7504791	2670698.26704643
22	21	0	0	90	36.1581920903955	36.241610738255	14	0.466699351966381	2	5	6	NaN	1	3	0.0456048706144795	1	1	NaN	303	5	51	1	121	221	321	NaN	521	0.485221822280437	1	1	NaN	2670699.4173512	NaN	2670700.4007525	2670700.91730648
22	21	0	0	90	36.1581920903955	36.241610738255	15	0.50003501996398	2	12	2	NaN	2	3	0.0456048706144795	1	1	NaN	304	5	52	1	121	221	321	NaN	521	0.524686870165169	2	1	NaN	2670702.2176231	NaN	2670703.2010459	2670703.71757263
22	21	0	0	90	36.1581920903955	36.241610738255	9	0.300021011978388	2	10	2	NaN	2	3	0.0456048706144795	1	1	NaN	305	5	53	1	121	221	321	NaN	521	0.299181569833308	2	1	NaN	2670705.0512292	NaN	2670706.0346366	2670706.55118513
22	21	0	0	90	36.1581920903955	36.241610738255	9	0.300021011978388	2	6	6	NaN	1	5	0.0456048706144795	1	1	NaN	306	5	54	1	121	221	321	NaN	521	0.226239569950849	1	1	NaN	2670707.6681777	NaN	2670708.651567	2670709.16810653
22	21	0	0	90	36.1581920903955	36.241610738255	18	0.600042023956776	2	4	3	NaN	1	4	0.0456048706144795	1	1	NaN	307	5	55	1	121	221	321	NaN	521	0.0104250172153115	1	1	NaN	2670710.21841	NaN	2670711.2018142	2670711.71835928
22	21	0	0	90	36.1581920903955	36.241610738255	17	0.566706355959177	2	7	1	NaN	2	5	0.0456048706144795	1	1	NaN	308	5	56	1	121	221	321	NaN	521	2.07934782234952	2	1	NaN	2670712.5353198	NaN	2670713.518711	2670714.03526308
22	21	0	0	90	36.1581920903955	36.241610738255	12	0.400028015971184	2	4	6	NaN	1	5	0.0456048706144795	1	1	NaN	309	5	57	1	121	221	321	NaN	521	0.471587222069502	1	1	NaN	2670716.9190675	NaN	2670717.9024615	2670718.41902538
22	21	0	0	90	36.1581920903955	36.241610738255	6	0.200014007985592	2	2	1	NaN	1	3	0.0456048706144795	1	1	NaN	310	5	58	1	121	221	321	NaN	521	1.05572241730988	1	1	NaN	2670719.7026729	NaN	2670720.6860808	2670721.20262538
22	21	0	0	90	36.1581920903955	36.241610738255	7	0.233349675983191	2	2	3	NaN	1	3	0.0456048706144795	1	1	NaN	311	5	59	1	121	221	321	NaN	521	0.416903522331268	1	1	NaN	2670723.0696784	NaN	2670724.0530655	2670724.56962458
22	21	0	0	90	36.1581920903955	36.241610738255	18	0.600042023956776	2	10	1	NaN	2	3	0.0456048706144795	1	1	NaN	312	5	60	1	121	221	321	NaN	521	0.274876470211893	2	1	NaN	2670725.803275	NaN	2670726.7866689	2670727.30322043
22	21	0	0	90	36.1581920903955	36.241610738255	14	0.466699351966381	2	11	2	NaN	2	4	0.0456048706144795	1	1	NaN	313	5	61	1	121	221	321	NaN	521	0.347505217418075	2	1	NaN	2670728.3868847	NaN	2670729.3702607	2670729.88682238
22	21	0	0	90	36.1581920903955	36.241610738255	16	0.533370687961578	2	10	2	NaN	2	4	0.0456048706144795	1	1	NaN	314	5	62	1	121	221	321	NaN	521	0.248549669981003	2	1	NaN	2670731.0538026	NaN	2670732.0372031	2670732.55374563
22	21	0	0	90	36.1581920903955	36.241610738255	14	0.466699351966381	2	11	1	NaN	2	4	0.0456048706144795	1	1	NaN	315	5	63	1	121	221	321	NaN	521	0.425905721727759	1	0	NaN	2670733.620716	NaN	2670734.6041389	2670735.12067068
22	21	0	0	90	36.1581920903955	36.241610738255	10	0.333356679975987	2	2	4	NaN	1	5	0.0456048706144795	1	1	NaN	316	6	1	1	121	221	321	NaN	521	0.214688322041184	1	1	NaN	2670750.6557151	NaN	2670751.6391095	2670752.15566378
22	21	0	0	90	36.1581920903955	36.241610738255	14	0.466699351966381	2	8	1	NaN	2	4	0.0456048706144795	1	1	NaN	317	6	2	1	121	221	321	NaN	521	1.76935022184625	1	0	NaN	2670753.1893074	NaN	2670754.1726899	2670754.68925448
22	21	0	0	90	36.1581920903955	36.241610738255	15	0.50003501996398	2	2	6	NaN	1	3	0.0456048706144795	1	1	NaN	318	6	3	1	121	221	321	NaN	521	0.333397469948977	1	1	NaN	2670757.2730274	NaN	2670758.2563577	2670758.77299083
22	21	0	0	90	36.1581920903955	36.241610738255	24	0.800056031942368	2	2	3	NaN	1	5	0.0456048706144795	1	1	NaN	319	6	4	1	121	221	321	NaN	521	0.427445522043854	1	1	NaN	2670759.9233083	NaN	2670760.9067231	2670761.42324878
22	21	0	0	90	36.1581920903955	36.241610738255	14	0.466699351966381	2	4	5	NaN	1	3	0.0456048706144795	1	1	NaN	320	6	5	1	121	221	321	NaN	521	1.03731926996261	1	1	NaN	2670762.6569054	NaN	2670763.6403	2670764.15685143
22	21	0	0	90	36.1581920903955	36.241610738255	19	0.633377691954374	2	2	3	NaN	1	4	0.0456048706144795	1	1	NaN	321	6	6	1	121	221	321	NaN	521	0.815213370136917	1	1	NaN	2670766.0072308	NaN	2670766.9906312	2670767.50717333
22	21	0	0	90	36.1581920903955	36.241610738255	15	0.50003501996398	2	6	1	NaN	1	4	0.0456048706144795	1	1	NaN	322	6	7	1	121	221	321	NaN	521	0.289925700053573	1	1	NaN	2670769.1408788	NaN	2670770.124266	2670770.640847
22	21	0	0	90	36.1581920903955	36.241610738255	6	0.200014007985592	2	10	4	NaN	2	5	0.0456048706144795	1	1	NaN	323	6	8	1	121	221	321	NaN	521	0.217596574686468	1	0	NaN	2670771.741118	NaN	2670772.7245297	2670773.24107103
22	21	0	0	90	36.1581920903955	36.241610738255	21	0.700049027949572	2	2	6	NaN	1	5	0.0456048706144795	1	1	NaN	324	6	9	1	121	221	321	NaN	521	0.59563827002421	1	1	NaN	2670774.2747021	NaN	2670775.2581035	2670775.77465293
22	21	0	0	90	36.1581920903955	36.241610738255	21	0.700049027949572	2	8	4	NaN	2	3	0.0456048706144795	1	1	NaN	325	6	10	1	121	221	321	NaN	521	0.383117122109979	1	0	NaN	2670777.1916621	NaN	2670778.1750608	2670778.69160498
22	21	0	0	90	36.1581920903955	36.241610738255	8	0.266685343980789	2	8	1	NaN	2	4	0.0456048706144795	1	1	NaN	326	6	11	1	121	221	321	NaN	521	0.26654052734375	2	1	NaN	2670779.891908	NaN	2670780.8753172	2670781.39187317
22	21	0	0	90	36.1581920903955	36.241610738255	9	0.300021011978388	2	9	4	NaN	2	3	0.0456048706144795	1	1	NaN	327	6	12	1	121	221	321	NaN	521	0.314847270026803	2	1	NaN	2670782.4755065	NaN	2670783.4589125	2670783.97546473
22	21	0	0	90	36.1581920903955	36.241610738255	6	0.200014007985592	2	3	4	NaN	1	5	0.0456048706144795	1	1	NaN	328	6	13	1	121	221	321	NaN	521	0.233975369948894	1	1	NaN	2670785.2924388	NaN	2670786.2758557	2670786.79239833
22	21	0	0	90	36.1581920903955	36.241610738255	10	0.333356679975987	2	12	6	NaN	2	5	0.0456048706144795	1	1	NaN	329	6	14	1	121	221	321	NaN	521	0.339555270038545	2	1	NaN	2670787.8425931	NaN	2670788.8260993	2670789.34265903
22	21	0	0	90	36.1581920903955	36.241610738255	13	0.433363683968782	2	8	6	NaN	2	4	0.0456048706144795	1	1	NaN	330	6	15	1	121	221	321	NaN	521	0.417429817374796	2	1	NaN	2670790.492966	NaN	2670791.4763612	2670791.99292568
22	21	0	0	90	36.1581920903955	36.241610738255	14	0.466699351966381	2	9	1	NaN	2	5	0.0456048706144795	1	1	NaN	331	6	16	1	121	221	321	NaN	521	0.36391213722527	2	1	NaN	2670793.2265851	NaN	2670794.2099619	2670794.72652376
22	21	0	0	90	36.1581920903955	36.241610738255	6	0.200014007985592	2	2	6	NaN	1	3	0.0456048706144795	1	1	NaN	332	6	17	1	121	221	321	NaN	521	0.0104252169840038	1	1	NaN	2670795.9101651	NaN	2670796.8935575	2670797.41011988
22	21	0	0	90	36.1581920903955	36.241610738255	0	0	1	1	3	NaN	1	3	0.0456048706144795	1	1	NaN	333	6	18	1	111	211	311	NaN	511	0.173186069820076	1	1	NaN	2670798.9771085	NaN	2670799.9605375	2670800.47708143
22	21	0	0	90	36.1581920903955	36.241610738255	21	0.700049027949572	2	8	4	NaN	2	3	0.0456048706144795	1	1	NaN	334	6	19	1	121	221	321	NaN	521	0.544393617194146	2	1	NaN	2670802.0940408	NaN	2670803.0774949	2670803.59405988
22	21	0	0	90	36.1581920903955	36.241610738255	0	0	1	2	6	NaN	1	3	0.0456048706144795	1	1	NaN	335	6	20	1	111	211	311	NaN	511	0.669655870180577	1	1	NaN	2670804.961053	NaN	2670805.9444632	2670806.46100003
22	21	0	0	90	36.1581920903955	36.241610738255	21	0.700049027949572	2	7	6	NaN	2	5	0.0456048706144795	1	1	NaN	336	6	21	1	121	221	321	NaN	521	0.605654322076589	2	1	NaN	2670807.9446748	NaN	2670808.9279724	2670809.44463388
22	21	0	0	90	36.1581920903955	36.241610738255	17	0.566706355959177	2	10	6	NaN	2	3	0.0456048706144795	1	1	NaN	337	6	22	1	121	221	321	NaN	521	2.23293771734461	2	1	NaN	2670810.8616464	NaN	2670811.845041	2670812.36157808
22	21	0	0	90	36.1581920903955	36.241610738255	14	0.466699351966381	2	9	5	NaN	2	5	0.0456048706144795	1	1	NaN	338	6	23	1	121	221	321	NaN	521	0.395181322004646	2	1	NaN	2670815.3954141	NaN	2670816.3788097	2670816.89536868
22	21	0	0	90	36.1581920903955	36.241610738255	16	0.533370687961578	2	10	1	NaN	2	3	0.0456048706144795	1	1	NaN	339	6	24	1	121	221	321	NaN	521	0.543251617345959	1	0	NaN	2670818.095686	NaN	2670819.0790655	2670819.59562448
22	21	0	0	90	36.1581920903955	36.241610738255	25	0.833391699939966	2	8	4	NaN	2	5	0.0456048706144795	1	1	NaN	340	6	25	1	121	221	321	NaN	521	0.564482517540455	2	1	NaN	2670820.9459525	NaN	2670821.9293565	2670822.44590748
22	21	0	0	90	36.1581920903955	36.241610738255	21	0.700049027949572	2	3	5	NaN	1	5	0.0456048706144795	1	1	NaN	341	6	26	1	121	221	321	NaN	521	2.07286377018318	2	0	NaN	2670823.8295433	NaN	2670824.8129758	2670825.32953143
22	21	0	0	90	36.1581920903955	36.241610738255	19	0.633377691954374	2	8	4	NaN	2	4	0.0456048706144795	1	1	NaN	342	6	27	1	121	221	321	NaN	521	1.08113152207807	2	1	NaN	2670828.2133126	NaN	2670829.1967367	2670829.71329428
22	21	0	0	90	36.1581920903955	36.241610738255	22	0.73338469594717	2	4	6	NaN	1	4	0.0456048706144795	1	1	NaN	343	6	28	1	121	221	321	NaN	521	1.36094652209431	1	1	NaN	2670831.6136896	NaN	2670832.5970725	2670833.11362738
22	21	0	0	90	36.1581920903955	36.241610738255	10	0.333356679975987	2	12	2	NaN	2	4	0.0456048706144795	1	1	NaN	344	6	29	1	121	221	321	NaN	521	0.581317817326635	2	1	NaN	2670835.297363	NaN	2670836.28077	2670836.79731428
22	21	0	0	90	36.1581920903955	36.241610738255	10	0.333356679975987	2	2	4	NaN	1	4	0.0456048706144795	1	1	NaN	345	6	30	1	121	221	321	NaN	521	0.360924622043967	1	1	NaN	2670838.1976602	NaN	2670839.1810581	2670839.69760558
22	21	0	0	90	36.1581920903955	36.241610738255	25	0.833391699939966	2	7	1	NaN	2	4	0.0456048706144795	1	1	NaN	346	6	31	1	121	221	321	NaN	521	0.304540222510695	2	1	NaN	2670841.3978512	NaN	2670842.381362	2670842.89792208
22	21	0	0	90	36.1581920903955	36.241610738255	25	0.833391699939966	2	3	1	NaN	1	5	0.0456048706144795	1	1	NaN	347	6	32	1	121	221	321	NaN	521	0.259874721989036	1	1	NaN	2670844.5149202	NaN	2670845.4983538	2670846.01489588
22	21	0	0	90	36.1581920903955	36.241610738255	21	0.700049027949572	2	4	1	NaN	1	5	0.0456048706144795	1	1	NaN	348	6	33	1	121	221	321	NaN	521	0.535976717248559	1	1	NaN	2670847.1985634	NaN	2670848.1819352	2670848.69848478
22	21	0	0	90	36.1581920903955	36.241610738255	16	0.533370687961578	2	3	2	NaN	1	4	0.0456048706144795	1	1	NaN	349	6	34	1	121	221	321	NaN	521	0.773989474866539	1	1	NaN	2670850.0488785	NaN	2670851.0322234	2670851.54876913
22	21	0	0	90	36.1581920903955	36.241610738255	6	0.200014007985592	2	6	4	NaN	1	4	0.0456048706144795	1	1	NaN	350	6	35	1	121	221	321	NaN	521	0.354117370210588	1	1	NaN	2670853.1324308	NaN	2670854.1158405	2670854.63239623
22	21	0	0	90	36.1581920903955	36.241610738255	0	0	1	4	2	NaN	1	3	0.0456048706144795	1	1	NaN	351	6	36	1	111	211	311	NaN	511	0.295496322214603	1	1	NaN	2670855.7994079	NaN	2670856.7827888	2670857.29933618
22	21	0	0	90	36.1581920903955	36.241610738255	15	0.50003501996398	2	5	3	NaN	1	4	0.0456048706144795	1	1	NaN	352	6	37	1	121	221	321	NaN	521	0.270600869785994	1	1	NaN	2670858.4163142	NaN	2670859.3996944	2670859.91625573
22	21	0	0	90	36.1581920903955	36.241610738255	19	0.633377691954374	2	7	5	NaN	2	3	0.0456048706144795	1	1	NaN	353	6	38	1	121	221	321	NaN	521	0.415000217501074	1	0	NaN	2670860.9998956	NaN	2670861.983296	2670862.49983998
22	21	0	0	90	36.1581920903955	36.241610738255	8	0.266685343980789	2	3	4	NaN	1	5	0.0456048706144795	1	1	NaN	354	6	39	1	121	221	321	NaN	521	0.057088022120297	1	1	NaN	2670863.733509	NaN	2670864.7168758	2670865.23345048
22	21	0	0	90	36.1581920903955	36.241610738255	8	0.266685343980789	2	12	1	NaN	2	4	0.0456048706144795	1	1	NaN	355	6	40	1	121	221	321	NaN	521	0.338187122251838	2	1	NaN	2670866.1004053	NaN	2670867.0838026	2670867.60034578
22	21	0	0	90	36.1581920903955	36.241610738255	8	0.266685343980789	2	8	5	NaN	2	3	0.0456048706144795	1	1	NaN	356	6	41	1	121	221	321	NaN	521	2.3037642701529	1	0	NaN	2670868.7506532	NaN	2670869.7340534	2670870.25060133
22	21	0	0	90	36.1581920903955	36.241610738255	10	0.333356679975987	2	3	6	NaN	1	4	0.0456048706144795	1	1	NaN	357	6	42	1	121	221	321	NaN	521	0.398725470062345	1	1	NaN	2670873.3677655	NaN	2670874.3511795	2670874.86772013
22	21	0	0	90	36.1581920903955	36.241610738255	14	0.466699351966381	2	2	5	NaN	1	4	0.0456048706144795	1	1	NaN	358	6	43	1	121	221	321	NaN	521	0.19878036994487	1	1	NaN	2670876.5680899	NaN	2670877.5514817	2670878.06803913
22	21	0	0	90	36.1581920903955	36.241610738255	10	0.333356679975987	2	6	4	NaN	1	3	0.0456048706144795	1	1	NaN	359	6	44	1	121	221	321	NaN	521	0.281867022160441	1	1	NaN	2670879.0850039	NaN	2670880.0684061	2670880.58495678
22	21	0	0	90	36.1581920903955	36.241610738255	20	0.666713359951973	2	7	1	NaN	2	3	0.0456048706144795	1	1	NaN	360	6	45	1	121	221	321	NaN	521	1.28139102179557	1	0	NaN	2670881.6852811	NaN	2670882.6686938	2670883.18521328
22	21	0	0	90	36.1581920903955	36.241610738255	10	0.333356679975987	2	11	6	NaN	2	4	0.0456048706144795	1	1	NaN	361	6	46	1	121	221	321	NaN	521	0.241327822208405	2	1	NaN	2670885.2856045	NaN	2670886.2690129	2670886.78556698
22	21	0	0	90	36.1581920903955	36.241610738255	9	0.300021011978388	2	1	6	NaN	1	5	0.0456048706144795	1	1	NaN	362	6	47	1	121	221	321	NaN	521	0.35958596970886	1	1	NaN	2670887.9191813	NaN	2670888.9026028	2670889.41915903
22	21	0	0	90	36.1581920903955	36.241610738255	6	0.200014007985592	2	10	2	NaN	2	4	0.0456048706144795	1	1	NaN	363	6	48	1	121	221	321	NaN	521	0.0845335703343153	2	1	NaN	2670890.5859943	NaN	2670891.5695353	2670892.08608463
22	21	0	0	90	36.1581920903955	36.241610738255	9	0.300021011978388	2	12	3	NaN	2	4	0.0456048706144795	1	1	NaN	364	6	49	1	121	221	321	NaN	521	3.80220642220229	2	1	NaN	2670893.0363859	NaN	2670894.0197684	2670894.53632678
22	21	0	0	90	36.1581920903955	36.241610738255	7	0.233349675983191	2	12	5	NaN	2	4	0.0456048706144795	1	1	NaN	365	6	50	1	121	221	321	NaN	521	0.333296169992536	1	0	NaN	2670899.1536543	NaN	2670900.1370419	2670900.65359433
22	21	0	0	90	36.1581920903955	36.241610738255	0	0	1	5	2	NaN	1	3	0.0456048706144795	1	1	NaN	366	6	51	1	111	211	311	NaN	511	0.41074426472187	1	1	NaN	2670901.8039235	NaN	2670902.7872954	2670903.30384914
22	21	0	0	90	36.1581920903955	36.241610738255	8	0.266685343980789	2	6	3	NaN	1	5	0.0456048706144795	1	1	NaN	367	6	52	1	121	221	321	NaN	521	0.429679617285728	1	1	NaN	2670904.520847	NaN	2670905.5042792	2670906.02078118
22	21	0	0	90	36.1581920903955	36.241610738255	22	0.73338469594717	2	10	5	NaN	2	4	0.0456048706144795	1	1	NaN	368	6	53	1	121	221	321	NaN	521	0.415545870084316	1	0	NaN	2670907.2709934	NaN	2670908.2545018	2670908.77105533
22	21	0	0	90	36.1581920903955	36.241610738255	8	0.266685343980789	2	11	6	NaN	2	5	0.0456048706144795	1	1	NaN	369	6	54	1	121	221	321	NaN	521	0.577855617273599	2	1	NaN	2670910.0047225	NaN	2670910.9880973	2670911.50465278
22	21	0	0	90	36.1581920903955	36.241610738255	11	0.366692347973585	2	10	5	NaN	2	5	0.0456048706144795	1	1	NaN	370	6	55	1	121	221	321	NaN	521	0.654565770179033	2	1	NaN	2670912.888324	NaN	2670913.8717279	2670914.38826853
22	21	0	0	90	36.1581920903955	36.241610738255	8	0.266685343980789	2	4	4	NaN	1	4	0.0456048706144795	1	1	NaN	371	6	56	1	121	221	321	NaN	521	0.303305322304368	1	1	NaN	2670915.8552854	NaN	2670916.8386902	2670917.35522548
22	21	0	0	90	36.1581920903955	36.241610738255	18	0.600042023956776	2	3	4	NaN	1	4	0.0456048706144795	1	1	NaN	372	6	57	1	121	221	321	NaN	521	0.286723969969898	1	1	NaN	2670918.4722077	NaN	2670919.4556476	2670919.97214853
22	21	0	0	90	36.1581920903955	36.241610738255	13	0.433363683968782	2	7	4	NaN	2	5	0.0456048706144795	1	1	NaN	373	6	58	1	121	221	321	NaN	521	0.351523069664836	2	1	NaN	2670921.2391138	NaN	2670922.2225362	2670922.73908493
22	21	0	0	90	36.1581920903955	36.241610738255	7	0.233349675983191	2	5	3	NaN	1	3	0.0456048706144795	1	1	NaN	374	6	59	1	121	221	321	NaN	521	0.380858322139829	1	1	NaN	2670923.9060828	NaN	2670924.8894707	2670925.40602808
22	21	0	0	90	36.1581920903955	36.241610738255	15	0.50003501996398	2	8	4	NaN	2	4	0.0456048706144795	1	1	NaN	375	6	60	1	121	221	321	NaN	521	0.0103995222598314	2	1	NaN	2670926.6063372	NaN	2670927.5897371	2670928.10629098
22	21	0	0	90	36.1581920903955	36.241610738255	0	0	1	11	5	NaN	2	5	0.0456048706144795	1	1	NaN	376	6	61	1	111	211	311	NaN	511	1.47415722208098	2	1	NaN	2670929.156579	NaN	2670930.1399727	2670930.65654108
22	21	0	0	90	36.1581920903955	36.241610738255	23	0.766720363944769	2	2	6	NaN	1	3	0.0456048706144795	1	1	NaN	377	6	62	1	121	221	321	NaN	521	0.218664722051471	1	1	NaN	2670932.9403017	NaN	2670933.923704	2670934.44024738
22	21	0	0	90	36.1581920903955	36.241610738255	15	0.50003501996398	2	6	2	NaN	1	3	0.0456048706144795	1	1	NaN	378	6	63	1	121	221	321	NaN	521	0.34872842207551	1	1	NaN	2670935.4738841	NaN	2670936.4572596	2670936.97383158
22	21	0	0	90	36.1581920903955	36.241610738255	11	0.366692347973585	2	9	3	NaN	2	5	0.0456048706144795	1	1	NaN	379	7	1	1	121	221	321	NaN	521	1.883833469823	1	0	NaN	2670950.8587388	NaN	2670951.8421028	2670952.35867263
22	21	0	0	90	36.1581920903955	36.241610738255	12	0.400028015971184	2	3	6	NaN	1	3	0.0456048706144795	1	1	NaN	380	7	2	1	121	221	321	NaN	521	0.443482070229948	2	0	NaN	2670955.0591438	NaN	2670956.0425249	2670956.55907693
22	21	0	0	90	36.1581920903955	36.241610738255	14	0.466699351966381	2	12	6	NaN	2	5	0.0456048706144795	1	1	NaN	381	7	3	1	121	221	321	NaN	521	0.76487972214818	1	0	NaN	2670957.8260732	NaN	2670958.8094616	2670959.32601798
22	21	0	0	90	36.1581920903955	36.241610738255	18	0.600042023956776	2	1	4	NaN	1	4	0.0456048706144795	1	1	NaN	382	7	4	1	121	221	321	NaN	521	0.361783522181213	1	1	NaN	2670960.893035	NaN	2670961.8764419	2670962.39298928
22	21	0	0	90	36.1581920903955	36.241610738255	12	0.400028015971184	2	5	5	NaN	1	5	0.0456048706144795	1	1	NaN	383	7	5	1	121	221	321	NaN	521	0.254640021827072	2	0	NaN	2670963.5599741	NaN	2670964.5433661	2670965.05992198
22	21	0	0	90	36.1581920903955	36.241610738255	20	0.666713359951973	2	2	3	NaN	1	3	0.0456048706144795	1	1	NaN	384	7	6	1	121	221	321	NaN	521	0.0104059698060155	1	1	NaN	2670966.593612	NaN	2670967.577015	2670968.09354233
22	21	0	0	90	36.1581920903955	36.241610738255	23	0.766720363944769	2	5	1	NaN	1	3	0.0456048706144795	1	1	NaN	385	7	7	1	121	221	321	NaN	521	1.46453972253948	1	1	NaN	2670968.9104835	NaN	2670969.8938883	2670970.41044018
22	21	0	0	90	36.1581920903955	36.241610738255	8	0.266685343980789	2	10	3	NaN	2	4	0.0456048706144795	1	1	NaN	386	7	8	1	121	221	321	NaN	521	0.369408322032541	2	1	NaN	2670972.6775356	NaN	2670973.6609392	2670974.17748398
22	21	0	0	90	36.1581920903955	36.241610738255	19	0.633377691954374	2	7	1	NaN	2	3	0.0456048706144795	1	1	NaN	387	7	9	1	121	221	321	NaN	521	0.381823122035712	2	1	NaN	2670975.3611148	NaN	2670976.3445247	2670976.86108168
22	21	0	0	90	36.1581920903955	36.241610738255	16	0.533370687961578	2	2	5	NaN	1	5	0.0456048706144795	1	1	NaN	388	7	10	1	121	221	321	NaN	521	0.241734517738223	1	1	NaN	2670978.0614031	NaN	2670979.0447853	2670979.56133928
22	21	0	0	90	36.1581920903955	36.241610738255	11	0.366692347973585	2	7	2	NaN	2	4	0.0456048706144795	1	1	NaN	389	7	11	1	121	221	321	NaN	521	0.819469321984798	2	1	NaN	2670980.6116582	NaN	2670981.5950372	2670982.11159678
22	21	0	0	90	36.1581920903955	36.241610738255	19	0.633377691954374	2	5	1	NaN	1	3	0.0456048706144795	1	1	NaN	390	7	12	1	121	221	321	NaN	521	0.405472970101982	1	1	NaN	2670983.7452889	NaN	2670984.7286832	2670985.24522743
22	21	0	0	90	36.1581920903955	36.241610738255	7	0.233349675983191	2	1	2	NaN	1	3	0.0456048706144795	1	1	NaN	391	7	13	1	121	221	321	NaN	521	0.886173422448337	1	1	NaN	2670986.9289152	NaN	2670987.9123258	2670988.42888318
22	21	0	0	90	36.1581920903955	36.241610738255	15	0.50003501996398	2	9	4	NaN	2	5	0.0456048706144795	1	1	NaN	392	7	14	1	121	221	321	NaN	521	0.349500922486186	2	1	NaN	2670990.1292494	NaN	2670991.1126485	2670991.62918978
22	21	0	0	90	36.1581920903955	36.241610738255	20	0.666713359951973	2	3	2	NaN	1	5	0.0456048706144795	1	1	NaN	393	7	15	1	121	221	321	NaN	521	0.250941122416407	1	1	NaN	2670992.79617	NaN	2670993.7795942	2670994.29611438
22	21	0	0	90	36.1581920903955	36.241610738255	9	0.300021011978388	2	4	6	NaN	1	3	0.0456048706144795	1	1	NaN	394	7	16	1	121	221	321	NaN	521	0.362652922049165	1	1	NaN	2670995.3964074	NaN	2670996.379815	2670996.89637928
22	21	0	0	90	36.1581920903955	36.241610738255	25	0.833391699939966	2	7	4	NaN	2	3	0.0456048706144795	1	1	NaN	395	7	17	1	121	221	321	NaN	521	1.24706956977025	1	0	NaN	2670998.0800226	NaN	2670999.0634152	2670999.57997083
22	21	0	0	90	36.1581920903955	36.241610738255	13	0.433363683968782	2	9	6	NaN	2	4	0.0456048706144795	1	1	NaN	396	7	18	1	121	221	321	NaN	521	0.319752122275531	2	1	NaN	2671001.647029	NaN	2671002.6304551	2671003.14699538
22	21	0	0	90	36.1581920903955	36.241610738255	20	0.666713359951973	2	8	1	NaN	2	4	0.0456048706144795	1	1	NaN	397	7	19	1	121	221	321	NaN	521	0.678163017611951	2	1	NaN	2671004.2806485	NaN	2671005.2640212	2671005.78058418
22	21	0	0	90	36.1581920903955	36.241610738255	23	0.766720363944769	2	6	2	NaN	1	4	0.0456048706144795	1	1	NaN	398	7	20	1	121	221	321	NaN	521	0.462131332606077	1	1	NaN	2671007.2809384	NaN	2671008.2643359	2671008.78088437
22	21	0	0	90	36.1581920903955	36.241610738255	20	0.666713359951973	2	3	3	NaN	1	3	0.0456048706144795	1	1	NaN	399	7	21	1	121	221	321	NaN	521	0.390056570060551	1	1	NaN	2671010.0645419	NaN	2671011.0479281	2671011.56448733
22	21	0	0	90	36.1581920903955	36.241610738255	16	0.533370687961578	2	5	5	NaN	1	4	0.0456048706144795	1	1	NaN	400	7	22	1	121	221	321	NaN	521	1.57191332196817	2	0	NaN	2671012.914781	NaN	2671013.8982153	2671014.41476528
22	21	0	0	90	36.1581920903955	36.241610738255	23	0.766720363944769	2	9	2	NaN	2	5	0.0456048706144795	1	1	NaN	401	7	23	1	121	221	321	NaN	521	0.552300622221082	1	0	NaN	2671016.7984277	NaN	2671017.7819844	2671018.29848308
22	21	0	0	90	36.1581920903955	36.241610738255	7	0.233349675983191	2	6	6	NaN	1	5	0.0456048706144795	1	1	NaN	402	7	24	1	121	221	321	NaN	521	0.37360032228753	1	1	NaN	2671019.6653686	NaN	2671020.6488807	2671021.16542438
22	21	0	0	90	36.1581920903955	36.241610738255	9	0.300021011978388	2	3	1	NaN	1	5	0.0456048706144795	1	1	NaN	403	7	25	1	121	221	321	NaN	521	0.0816101697273552	1	1	NaN	2671022.3491073	NaN	2671023.3324652	2671023.84902863
22	21	0	0	90	36.1581920903955	36.241610738255	10	0.333356679975987	2	3	5	NaN	1	3	0.0456048706144795	1	1	NaN	404	7	26	1	121	221	321	NaN	521	0.202223022468388	1	1	NaN	2671024.7327265	NaN	2671025.7160454	2671026.23258598
22	21	0	0	90	36.1581920903955	36.241610738255	13	0.433363683968782	2	1	5	NaN	1	4	0.0456048706144795	1	1	NaN	405	7	27	1	121	221	321	NaN	521	0.773245221935213	1	1	NaN	2671027.24957	NaN	2671028.2329684	2671028.74951218
22	21	0	0	90	36.1581920903955	36.241610738255	25	0.833391699939966	2	6	5	NaN	1	4	0.0456048706144795	1	1	NaN	406	7	28	1	121	221	321	NaN	521	0.337577817495912	1	1	NaN	2671030.3331984	NaN	2671031.3165931	2671031.83313918
22	21	0	0	90	36.1581920903955	36.241610738255	16	0.533370687961578	2	12	4	NaN	2	3	0.0456048706144795	1	1	NaN	407	7	29	1	121	221	321	NaN	521	1.7433298220858	2	1	NaN	2671032.9827869	NaN	2671033.9668577	2671034.48340798
22	21	0	0	90	36.1581920903955	36.241610738255	9	0.300021011978388	2	11	6	NaN	2	5	0.0456048706144795	1	1	NaN	408	7	30	1	121	221	321	NaN	521	0.508180521894246	2	1	NaN	2671037.050475	NaN	2671038.0339216	2671038.55047378
22	21	0	0	90	36.1581920903955	36.241610738255	12	0.400028015971184	2	9	6	NaN	2	3	0.0456048706144795	1	1	NaN	409	7	31	1	121	221	321	NaN	521	0.299262922257185	2	1	NaN	2671039.867454	NaN	2671040.8508595	2671041.36741778
22	21	0	0	90	36.1581920903955	36.241610738255	22	0.73338469594717	2	9	4	NaN	2	4	0.0456048706144795	1	1	NaN	410	7	32	1	121	221	321	NaN	521	0.370658869855106	2	1	NaN	2671042.4843873	NaN	2671043.4677834	2671043.98433043
22	21	0	0	90	36.1581920903955	36.241610738255	8	0.266685343980789	2	10	1	NaN	2	5	0.0456048706144795	1	1	NaN	411	7	33	1	121	221	321	NaN	521	0.0103386375121772	1	0	NaN	2671045.1679941	NaN	2671046.1513835	2671046.66793176
22	21	0	0	90	36.1581920903955	36.241610738255	0	0	1	9	4	NaN	2	4	0.0456048706144795	1	1	NaN	412	7	34	1	111	211	311	NaN	511	0.353896469809115	2	1	NaN	2671047.4848725	NaN	2671048.4683127	2671048.98483313
22	21	0	0	90	36.1581920903955	36.241610738255	15	0.50003501996398	2	5	4	NaN	1	3	0.0456048706144795	1	1	NaN	413	7	35	1	121	221	321	NaN	521	0.215395269915462	1	1	NaN	2671050.1518063	NaN	2671051.1352032	2671051.65174833
22	21	0	0	90	36.1581920903955	36.241610738255	23	0.766720363944769	2	7	3	NaN	2	4	0.0456048706144795	1	1	NaN	414	7	36	1	121	221	321	NaN	521	0.257712417282164	2	1	NaN	2671052.6853978	NaN	2671053.6687946	2671054.18533748
22	21	0	0	90	36.1581920903955	36.241610738255	24	0.800056031942368	2	10	6	NaN	2	5	0.0456048706144795	1	1	NaN	415	7	37	1	121	221	321	NaN	521	0.538484669756144	1	0	NaN	2671055.2523281	NaN	2671056.2356841	2671056.75225323
22	21	0	0	90	36.1581920903955	36.241610738255	13	0.433363683968782	2	6	1	NaN	1	3	0.0456048706144795	1	1	NaN	416	7	38	1	121	221	321	NaN	521	0.376514512114227	1	1	NaN	2671058.1026015	NaN	2671059.0859894	2671059.60253479
22	21	0	0	90	36.1581920903955	36.241610738255	16	0.533370687961578	2	4	3	NaN	1	5	0.0456048706144795	1	1	NaN	417	7	39	1	121	221	321	NaN	521	0.260448317509145	1	1	NaN	2671060.7861802	NaN	2671061.7695793	2671062.28613108
22	21	0	0	90	36.1581920903955	36.241610738255	7	0.233349675983191	2	10	4	NaN	2	5	0.0456048706144795	1	1	NaN	418	7	40	1	121	221	321	NaN	521	1.15789011726156	2	1	NaN	2671063.3529716	NaN	2671064.3365061	2671064.85304438
22	21	0	0	90	36.1581920903955	36.241610738255	16	0.533370687961578	2	8	5	NaN	2	5	0.0456048706144795	1	1	NaN	419	7	41	1	121	221	321	NaN	521	0.554773070383817	1	0	NaN	2671066.8201121	NaN	2671067.8034995	2671068.32005263
22	21	0	0	90	36.1581920903955	36.241610738255	10	0.333356679975987	2	5	1	NaN	1	4	0.0456048706144795	1	1	NaN	420	7	42	1	121	221	321	NaN	521	0.326833017636091	1	1	NaN	2671069.7036981	NaN	2671070.687115	2671071.20367198
22	21	0	0	90	36.1581920903955	36.241610738255	14	0.466699351966381	2	1	1	NaN	1	5	0.0456048706144795	1	1	NaN	421	7	43	1	121	221	321	NaN	521	0.469603670295328	1	1	NaN	2671072.3373228	NaN	2671073.3207228	2671073.83726693
22	21	0	0	90	36.1581920903955	36.241610738255	16	0.533370687961578	2	9	3	NaN	2	4	0.0456048706144795	1	1	NaN	422	7	44	1	121	221	321	NaN	521	0.605817469768226	2	1	NaN	2671075.1209191	NaN	2671076.1043269	2671076.62087773
22	21	0	0	90	36.1581920903955	36.241610738255	18	0.600042023956776	2	6	5	NaN	1	4	0.0456048706144795	1	1	NaN	423	7	45	1	121	221	321	NaN	521	0.77953392220661	1	1	NaN	2671078.5712528	NaN	2671079.5546556	2671080.07121898
22	21	0	0	90	36.1581920903955	36.241610738255	15	0.50003501996398	2	12	4	NaN	2	5	0.0456048706144795	1	1	NaN	424	7	46	1	121	221	321	NaN	521	0.311200017109513	2	1	NaN	2671081.6715627	NaN	2671082.6549835	2671083.17151618
22	21	0	0	90	36.1581920903955	36.241610738255	6	0.200014007985592	2	7	2	NaN	2	4	0.0456048706144795	1	1	NaN	425	7	47	1	121	221	321	NaN	521	0.51869997009635	2	1	NaN	2671084.2883607	NaN	2671085.2718924	2671085.78843743
22	21	0	0	90	36.1581920903955	36.241610738255	10	0.333356679975987	2	9	5	NaN	2	5	0.0456048706144795	1	1	NaN	426	7	48	1	121	221	321	NaN	521	0.70869977446273	2	1	NaN	2671087.121992	NaN	2671088.1055072	2671088.62205313
22	21	0	0	90	36.1581920903955	36.241610738255	15	0.50003501996398	2	1	2	NaN	1	3	0.0456048706144795	1	1	NaN	427	7	49	1	121	221	321	NaN	521	0.452088222373277	1	1	NaN	2671090.139062	NaN	2671091.122465	2671091.63901838
22	21	0	0	90	36.1581920903955	36.241610738255	18	0.600042023956776	2	9	6	NaN	2	4	0.0456048706144795	1	1	NaN	428	7	50	1	121	221	321	NaN	521	0.30061156488955	2	1	NaN	2671092.9060187	NaN	2671093.8894054	2671094.40595014
22	21	0	0	90	36.1581920903955	36.241610738255	10	0.333356679975987	2	8	3	NaN	2	3	0.0456048706144795	1	1	NaN	429	7	51	1	121	221	321	NaN	521	2.54805012186989	2	1	NaN	2671095.5229322	NaN	2671096.5063561	2671097.02288098
22	21	0	0	90	36.1581920903955	36.241610738255	23	0.766720363944769	2	12	6	NaN	2	4	0.0456048706144795	1	1	NaN	430	7	52	1	121	221	321	NaN	521	0.665040912106633	2	1	NaN	2671100.3901018	NaN	2671101.3734815	2671101.89001379
22	21	0	0	90	36.1581920903955	36.241610738255	0	0	1	12	3	NaN	2	5	0.0456048706144795	1	1	NaN	431	7	53	1	111	211	311	NaN	511	0.337177670095116	2	1	NaN	2671103.3735529	NaN	2671104.3570874	2671104.87365143
22	21	0	0	90	36.1581920903955	36.241610738255	21	0.700049027949572	2	3	2	NaN	1	5	0.0456048706144795	1	1	NaN	432	7	54	1	121	221	321	NaN	521	0.422882569953799	1	1	NaN	2671106.023842	NaN	2671107.0073586	2671107.52391323
22	21	0	0	90	36.1581920903955	36.241610738255	24	0.800056031942368	2	3	3	NaN	1	3	0.0456048706144795	1	1	NaN	433	7	55	1	121	221	321	NaN	521	0.569317622110248	1	1	NaN	2671108.757569	NaN	2671109.7409574	2671110.25751808
22	21	0	0	90	36.1581920903955	36.241610738255	22	0.73338469594717	2	12	2	NaN	2	5	0.0456048706144795	1	1	NaN	434	7	56	1	121	221	321	NaN	521	0.342043922282755	2	1	NaN	2671111.6411777	NaN	2671112.6246012	2671113.14113488
22	21	0	0	90	36.1581920903955	36.241610738255	20	0.666713359951973	2	8	2	NaN	2	5	0.0456048706144795	1	1	NaN	435	7	57	1	121	221	321	NaN	521	0.403361722361296	2	1	NaN	2671114.291451	NaN	2671115.2748327	2671115.79139138
22	21	0	0	90	36.1581920903955	36.241610738255	11	0.366692347973585	2	5	1	NaN	1	5	0.0456048706144795	1	1	NaN	436	7	58	1	121	221	321	NaN	521	0.342642112169415	2	0	NaN	2671117.0083643	NaN	2671117.9917664	2671118.50831919
22	21	0	0	90	36.1581920903955	36.241610738255	20	0.666713359951973	2	10	1	NaN	2	3	0.0456048706144795	1	1	NaN	437	7	59	1	121	221	321	NaN	521	0.284465417731553	2	1	NaN	2671119.6586251	NaN	2671120.6420264	2671121.15857488
22	21	0	0	90	36.1581920903955	36.241610738255	9	0.300021011978388	2	5	6	NaN	1	3	0.0456048706144795	1	1	NaN	438	7	60	1	121	221	321	NaN	521	0.893826921936125	1	1	NaN	2671122.6088969	NaN	2671123.592322	2671124.10886668
22	21	0	0	90	36.1581920903955	36.241610738255	22	0.73338469594717	2	6	6	NaN	1	3	0.0456048706144795	1	1	NaN	439	7	61	1	121	221	321	NaN	521	0.678615817334503	2	0	NaN	2671126.3925921	NaN	2671127.3760245	2671127.89256768
22	21	0	0	90	36.1581920903955	36.241610738255	20	0.666713359951973	2	9	5	NaN	2	4	0.0456048706144795	1	1	NaN	440	7	62	1	121	221	321	NaN	521	0.358088617678732	2	1	NaN	2671129.3929227	NaN	2671130.3763334	2671130.89287278
22	21	0	0	90	36.1581920903955	36.241610738255	19	0.633377691954374	2	5	4	NaN	1	5	0.0456048706144795	1	1	NaN	441	7	63	1	121	221	321	NaN	521	0.274041422177106	1	1	NaN	2671132.0931584	NaN	2671133.0765806	2671133.59314178
22	21	0	0	90	36.1581920903955	36.241610738255	18	0.600042023956776	2	5	4	NaN	1	5	0.0456048706144795	1	1	NaN	442	8	1	1	121	221	321	NaN	521	2.93634606990963	2	0	NaN	2671146.8946646	NaN	2671147.8780279	2671148.39458613
22	21	0	0	90	36.1581920903955	36.241610738255	16	0.533370687961578	2	11	5	NaN	2	5	0.0456048706144795	1	1	NaN	443	8	2	1	121	221	321	NaN	521	1.17402157001197	1	0	NaN	2671152.14515	NaN	2671153.1285572	2671153.64510243
22	21	0	0	90	36.1581920903955	36.241610738255	7	0.233349675983191	2	4	1	NaN	1	3	0.0456048706144795	1	1	NaN	444	8	3	1	121	221	321	NaN	521	0.554116322193295	1	1	NaN	2671155.628929	NaN	2671156.6122274	2671157.12878588
22	21	0	0	90	36.1581920903955	36.241610738255	12	0.400028015971184	2	10	4	NaN	2	5	0.0456048706144795	1	1	NaN	445	8	4	1	121	221	321	NaN	521	0.359406117349863	1	0	NaN	2671158.49577	NaN	2671159.4791032	2671159.99572128
22	21	0	0	90	36.1581920903955	36.241610738255	16	0.533370687961578	2	12	4	NaN	2	5	0.0456048706144795	1	1	NaN	446	8	5	1	121	221	321	NaN	521	0.268465470056981	1	0	NaN	2671161.1625885	NaN	2671162.1461408	2671162.66266033
22	21	0	0	90	36.1581920903955	36.241610738255	15	0.50003501996398	2	10	5	NaN	2	5	0.0456048706144795	1	1	NaN	447	8	6	1	121	221	321	NaN	521	0.253002859652042	2	1	NaN	2671163.7462949	NaN	2671164.7296994	2671165.24623574
22	21	0	0	90	36.1581920903955	36.241610738255	0	0	1	3	6	NaN	1	4	0.0456048706144795	1	1	NaN	448	8	7	1	111	211	311	NaN	511	0.309752069879323	1	1	NaN	2671166.3132349	NaN	2671167.2965982	2671167.81316363
22	21	0	0	90	36.1581920903955	36.241610738255	22	0.73338469594717	2	5	4	NaN	1	3	0.0456048706144795	1	1	NaN	449	8	8	1	121	221	321	NaN	521	1.0526736699976	1	1	NaN	2671168.9300627	NaN	2671169.9135443	2671170.43008073
22	21	0	0	90	36.1581920903955	36.241610738255	14	0.466699351966381	2	3	5	NaN	1	4	0.0456048706144795	1	1	NaN	450	8	9	1	121	221	321	NaN	521	0.550118422135711	1	1	NaN	2671172.2970055	NaN	2671173.2805269	2671173.79708848
22	21	0	0	90	36.1581920903955	36.241610738255	23	0.766720363944769	2	8	5	NaN	2	4	0.0456048706144795	1	1	NaN	451	8	10	1	121	221	321	NaN	521	0.499000070150942	1	0	NaN	2671175.1640954	NaN	2671176.1474799	2671176.66404393
22	21	0	0	90	36.1581920903955	36.241610738255	16	0.533370687961578	2	2	4	NaN	1	3	0.0456048706144795	1	1	NaN	452	8	11	1	121	221	321	NaN	521	0.754086469765753	2	0	NaN	2671177.9810313	NaN	2671178.9644196	2671179.48096993
22	21	0	0	90	36.1581920903955	36.241610738255	18	0.600042023956776	2	12	3	NaN	2	4	0.0456048706144795	1	1	NaN	453	8	12	1	121	221	321	NaN	521	0.606925821863115	2	1	NaN	2671181.0480053	NaN	2671182.0313946	2671182.54794228
22	21	0	0	90	36.1581920903955	36.241610738255	23	0.766720363944769	2	10	4	NaN	2	4	0.0456048706144795	1	1	NaN	454	8	13	1	121	221	321	NaN	521	0.418114369735122	1	0	NaN	2671183.9648107	NaN	2671184.9483393	2671185.46489393
22	21	0	0	90	36.1581920903955	36.241610738255	21	0.700049027949572	2	5	5	NaN	1	3	0.0456048706144795	1	1	NaN	455	8	14	1	121	221	321	NaN	521	0.588724837172776	1	1	NaN	2671186.698543	NaN	2671187.6819504	2671188.19849556
22	21	0	0	90	36.1581920903955	36.241610738255	0	0	1	8	5	NaN	2	4	0.0456048706144795	1	1	NaN	456	8	15	1	111	211	311	NaN	511	1.00024982215837	1	0	NaN	2671189.5988463	NaN	2671190.5822315	2671191.09878858
22	21	0	0	90	36.1581920903955	36.241610738255	16	0.533370687961578	2	7	1	NaN	2	4	0.0456048706144795	1	1	NaN	457	8	16	1	121	221	321	NaN	521	0.483370469883084	2	1	NaN	2671192.9157959	NaN	2671193.8992208	2671194.41577993
22	21	0	0	90	36.1581920903955	36.241610738255	25	0.833391699939966	2	12	2	NaN	2	5	0.0456048706144795	1	1	NaN	458	8	17	1	121	221	321	NaN	521	0.395052964799106	2	1	NaN	2671195.7160926	NaN	2671196.6994854	2671197.21604524
