subjno	age	gender	isPractice	viewdist	CmToPixX	CmToPixY	SOA_frm	SOA_time	targNum	targID	targExample	targRace	targGender	firstTargPos	contrast	familiarity	curr_staircase	iStair	TrialNum	BlockNum	blktrl	sessionNum	TC_FIXATION	TC_RSVP_START	TC_RSVP_END	TC_BLANK	TC_RESPONSE_ONSET	RT2afc	resp_2afc	acc	RSVPOnsetVBL	RSVPOnsetTime	RSVPOffsetVBL	RSVPOffsetTime	startrt_2afc
47	20	1	0	90	36.1581920903955	36.241610738255	12	0.400024991780519	2	12	4	NaN	2	5	0.080651200461123	1	1	NaN	1	1	1	2	121	221	321	NaN	521	0.209340973757207	2	1	NaN	4323888.3326265	NaN	4323889.3159066	4323889.84903413
47	20	1	0	90	36.1581920903955	36.241610738255	12	0.400024991780519	2	8	4	NaN	2	5	0.080651200461123	1	1	NaN	2	1	2	2	121	221	321	NaN	521	0.0815376741811633	2	1	NaN	4323890.9162026	NaN	4323891.8994925	4323892.43262483
47	20	1	0	90	36.1581920903955	36.241610738255	23	0.766714567579329	2	3	4	NaN	1	4	0.080651200461123	1	1	NaN	3	1	3	2	121	221	321	NaN	521	0.0104137742891908	1	1	NaN	4323893.3328755	NaN	4323894.3162777	4323894.84952693
47	20	1	0	90	36.1581920903955	36.241610738255	7	0.23334791187197	2	3	3	NaN	1	4	0.080651200461123	1	1	NaN	4	1	4	2	121	221	321	NaN	521	0.0668408153578639	1	1	NaN	4323895.6831575	NaN	4323896.6665301	4323897.18308988
47	20	1	0	90	36.1581920903955	36.241610738255	6	0.20001249589026	2	8	4	NaN	2	5	0.080651200461123	1	1	NaN	5	1	5	2	121	221	321	NaN	521	0.195427969098091	1	0	NaN	4323898.0667066	NaN	4323899.0501008	4323899.56664733
47	20	1	0	90	36.1581920903955	36.241610738255	9	0.30001874383539	2	4	1	NaN	1	4	0.080651200461123	1	1	NaN	6	1	6	2	121	221	321	NaN	521	0.080625768750906	2	0	NaN	4323900.7336355	NaN	4323901.7171123	4323902.23358483
47	20	1	0	90	36.1581920903955	36.241610738255	12	0.400024991780519	2	3	5	NaN	1	5	0.080651200461123	1	1	NaN	7	1	7	2	121	221	321	NaN	521	0.168200115673244	1	1	NaN	4323903.1338733	NaN	4323904.1172514	4323904.63380978
47	20	1	0	90	36.1581920903955	36.241610738255	13	0.433360407762229	2	1	6	NaN	1	5	0.080651200461123	1	1	NaN	8	1	8	2	121	221	321	NaN	521	0.0999932205304503	1	1	NaN	4323905.6341023	NaN	4323906.6175085	4323907.13406758
47	20	1	0	90	36.1581920903955	36.241610738255	25	0.833385399542749	2	12	4	NaN	2	5	0.080651200461123	1	1	NaN	9	1	9	2	121	221	321	NaN	521	0.131225768476725	2	1	NaN	4323908.0511223	NaN	4323909.0344131	4323909.55096753
47	20	1	0	90	36.1581920903955	36.241610738255	21	0.700043735615909	2	4	4	NaN	1	3	0.080651200461123	1	1	NaN	10	1	10	2	121	221	321	NaN	521	0.14527976885438	1	1	NaN	4323910.5012551	NaN	4323911.4846633	4323912.00119953
47	20	1	0	90	36.1581920903955	36.241610738255	16	0.533366655707359	2	6	1	NaN	1	4	0.080651200461123	1	1	NaN	11	1	11	2	121	221	321	NaN	521	0.118264116346836	1	1	NaN	4323912.9681614	NaN	4323913.9515686	4323914.46811608
47	20	1	0	90	36.1581920903955	36.241610738255	22	0.733379151597619	2	11	6	NaN	2	3	0.080651200461123	1	1	NaN	12	1	12	2	121	221	321	NaN	521	0.123721968382597	2	1	NaN	4323915.4184086	NaN	4323916.4018121	4323916.91835433
47	20	1	0	90	36.1581920903955	36.241610738255	16	0.533366655707359	2	4	3	NaN	1	4	0.080651200461123	1	1	NaN	13	1	13	2	121	221	321	NaN	521	0.0341329155489802	1	1	NaN	4323917.8520283	NaN	4323918.8353666	4323919.35192638
47	20	1	0	90	36.1581920903955	36.241610738255	14	0.466695823743939	2	3	1	NaN	1	4	0.080651200461123	1	1	NaN	14	1	14	2	121	221	321	NaN	521	0.300315720029175	2	0	NaN	4323920.2022292	NaN	4323921.185603	4323921.70215858
47	20	1	0	90	36.1581920903955	36.241610738255	24	0.800049983561039	2	3	3	NaN	1	5	0.080651200461123	1	1	NaN	15	1	15	2	121	221	321	NaN	521	0.123213395476341	2	0	NaN	4323922.8191545	NaN	4323923.8025293	4323924.319082
47	20	1	0	90	36.1581920903955	36.241610738255	11	0.36668957579881	2	3	2	NaN	1	3	0.080651200461123	1	1	NaN	16	1	16	2	121	221	321	NaN	521	0.136873020790517	1	1	NaN	4323925.2692154	NaN	4323926.252769	4323926.76932468
47	20	1	0	90	36.1581920903955	36.241610738255	9	0.30001874383539	2	2	3	NaN	1	5	0.080651200461123	1	1	NaN	17	1	17	2	121	221	321	NaN	521	0.110763820819557	1	1	NaN	4323927.7195845	NaN	4323928.7030167	4323929.21956668
47	20	1	0	90	36.1581920903955	36.241610738255	17	0.566702071689069	2	2	2	NaN	1	5	0.080651200461123	1	1	NaN	18	1	18	2	121	221	321	NaN	521	0.108781868591905	1	1	NaN	4323930.1531872	NaN	4323931.136578	4323931.65312753
47	20	1	0	90	36.1581920903955	36.241610738255	19	0.633372903652489	2	6	6	NaN	1	4	0.080651200461123	1	1	NaN	19	1	19	2	121	221	321	NaN	521	0.099450015462935	1	1	NaN	4323932.5866326	NaN	4323933.5701522	4323934.08670048
47	20	1	0	90	36.1581920903955	36.241610738255	16	0.533366655707359	2	10	4	NaN	2	3	0.080651200461123	1	1	NaN	20	1	20	2	121	221	321	NaN	521	0.274615720845759	2	1	NaN	4323935.0036524	NaN	4323935.9870514	4323936.50361488
47	20	1	0	90	36.1581920903955	36.241610738255	8	0.26668332785368	2	5	2	NaN	1	3	0.080651200461123	1	1	NaN	21	1	21	2	121	221	321	NaN	521	0.0103980209678411	1	1	NaN	4323937.6037668	NaN	4323938.587329	4323939.10386888
47	20	1	0	90	36.1581920903955	36.241610738255	0	0	1	12	3	NaN	2	5	0.080651200461123	1	1	NaN	22	1	22	2	111	211	311	NaN	511	0.285126520320773	1	0	NaN	4323939.9374739	NaN	4323940.9208562	4323941.43742708
47	20	1	0	90	36.1581920903955	36.241610738255	11	0.36668957579881	2	6	4	NaN	1	3	0.080651200461123	1	1	NaN	23	1	23	2	121	221	321	NaN	521	0.0444117691367865	1	1	NaN	4323942.5375965	NaN	4323943.5210368	4323944.03767883
47	20	1	0	90	36.1581920903955	36.241610738255	18	0.600037487670779	2	9	3	NaN	2	4	0.080651200461123	1	1	NaN	24	1	24	2	121	221	321	NaN	521	0.010257295332849	2	1	NaN	4323944.9879448	NaN	4323945.971396	4323946.4879312
47	20	1	0	90	36.1581920903955	36.241610738255	20	0.666708319634199	2	2	3	NaN	1	3	0.080651200461123	1	1	NaN	25	1	25	2	121	221	321	NaN	521	0.0103977210819721	1	1	NaN	4323947.3215305	NaN	4323948.3048546	4323948.82148208
47	20	1	0	90	36.1581920903955	36.241610738255	8	0.26668332785368	2	10	6	NaN	2	3	0.080651200461123	1	1	NaN	26	1	26	2	121	221	321	NaN	521	0.111279741860926	1	0	NaN	4323949.6549773	NaN	4323950.638488	4323951.15504946
47	20	1	0	90	36.1581920903955	36.241610738255	10	0.3333541598171	2	9	5	NaN	2	3	0.080651200461123	1	1	NaN	27	1	27	2	121	221	321	NaN	521	0.0377218686044216	1	0	NaN	4323952.0886616	NaN	4323953.0720668	4323953.58860973
47	20	1	0	90	36.1581920903955	36.241610738255	16	0.533366655707359	2	8	1	NaN	2	5	0.080651200461123	1	1	NaN	28	1	28	2	121	221	321	NaN	521	0.0873684892430902	2	1	NaN	4323954.4388963	NaN	4323955.4222903	4323955.93885091
47	20	1	0	90	36.1581920903955	36.241610738255	8	0.26668332785368	2	2	5	NaN	1	5	0.080651200461123	1	1	NaN	29	1	29	2	121	221	321	NaN	521	0.367430368438363	1	1	NaN	4323956.8391256	NaN	4323957.8225424	4323958.33908233
47	20	1	0	90	36.1581920903955	36.241610738255	10	0.3333541598171	2	8	3	NaN	2	3	0.080651200461123	1	1	NaN	30	1	30	2	121	221	321	NaN	521	0.107626220211387	1	0	NaN	4323959.5227392	NaN	4323960.5061328	4323961.02267908
47	20	1	0	90	36.1581920903955	36.241610738255	6	0.20001249589026	2	9	5	NaN	2	5	0.080651200461123	1	1	NaN	31	1	31	2	121	221	321	NaN	521	0.098092520609498	1	0	NaN	4323961.9563061	NaN	4323962.9396983	4323963.45625648
47	20	1	0	90	36.1581920903955	36.241610738255	24	0.800049983561039	2	8	2	NaN	2	3	0.080651200461123	1	1	NaN	32	1	32	2	121	221	321	NaN	521	0.137051368132234	1	0	NaN	4323964.3730791	NaN	4323965.3566243	4323965.87314673
47	20	1	0	90	36.1581920903955	36.241610738255	14	0.466695823743939	2	11	1	NaN	2	3	0.080651200461123	1	1	NaN	33	1	33	2	121	221	321	NaN	521	0.34308173134923	1	0	NaN	4323966.8233278	NaN	4323967.8068439	4323968.32339137
47	20	1	0	90	36.1581920903955	36.241610738255	6	0.20001249589026	2	9	5	NaN	2	4	0.080651200461123	1	1	NaN	34	1	34	2	121	221	321	NaN	521	0.140810220502317	1	0	NaN	4323969.4736779	NaN	4323970.4570967	4323970.97365948
47	20	1	0	90	36.1581920903955	36.241610738255	13	0.433360407762229	2	11	3	NaN	2	3	0.080651200461123	1	1	NaN	35	1	35	2	121	221	321	NaN	521	0.1056486684829	1	0	NaN	4323971.9406232	NaN	4323972.9240142	4323973.44056643
47	20	1	0	90	36.1581920903955	36.241610738255	22	0.733379151597619	2	6	3	NaN	1	4	0.080651200461123	1	1	NaN	36	1	36	2	121	221	321	NaN	521	0.0960676679387689	1	1	NaN	4323974.3741954	NaN	4323975.3576018	4323975.87414053
47	20	1	0	90	36.1581920903955	36.241610738255	13	0.433360407762229	2	7	4	NaN	2	4	0.080651200461123	1	1	NaN	37	1	37	2	121	221	321	NaN	521	0.079197321087122	1	0	NaN	4323976.7910984	NaN	4323977.7744882	4323978.29104258
47	20	1	0	90	36.1581920903955	36.241610738255	21	0.700043735615909	2	3	5	NaN	1	5	0.080651200461123	1	1	NaN	38	1	38	2	121	221	321	NaN	521	0.0875521693378687	1	1	NaN	4323979.1746759	NaN	4323980.158062	4323980.67459823
47	20	1	0	90	36.1581920903955	36.241610738255	18	0.600037487670779	2	4	6	NaN	1	4	0.080651200461123	1	1	NaN	39	1	39	2	121	221	321	NaN	521	0.167392920702696	1	1	NaN	4323981.574888	NaN	4323982.5582889	4323983.07484318
47	20	1	0	90	36.1581920903955	36.241610738255	7	0.23334791187197	2	2	5	NaN	1	4	0.080651200461123	1	1	NaN	40	1	40	2	121	221	321	NaN	521	0.0104123679921031	1	1	NaN	4323984.0584909	NaN	4323985.041872	4323985.55840953
47	20	1	0	90	36.1581920903955	36.241610738255	24	0.800049983561039	2	2	6	NaN	1	5	0.080651200461123	1	1	NaN	41	1	41	2	121	221	321	NaN	521	0.0940208686515689	1	1	NaN	4323986.3920393	NaN	4323987.3754271	4323987.89197883
47	20	1	0	90	36.1581920903955	36.241610738255	22	0.733379151597619	2	11	2	NaN	2	5	0.080651200461123	1	1	NaN	42	1	42	2	121	221	321	NaN	521	0.109372420236468	2	1	NaN	4323988.8089284	NaN	4323989.7923699	4323990.30888778
47	20	1	0	90	36.1581920903955	36.241610738255	9	0.30001874383539	2	12	5	NaN	2	4	0.080651200461123	1	1	NaN	43	1	43	2	121	221	321	NaN	521	0.0526581685990095	1	0	NaN	4323991.2258328	NaN	4323992.2092195	4323992.72577973
47	20	1	0	90	36.1581920903955	36.241610738255	16	0.533366655707359	2	5	4	NaN	1	5	0.080651200461123	1	1	NaN	44	1	44	2	121	221	321	NaN	521	0.123170420527458	1	1	NaN	4323993.859431	NaN	4323994.8428209	4323995.35938018
47	20	1	0	90	36.1581920903955	36.241610738255	9	0.30001874383539	2	6	4	NaN	1	5	0.080651200461123	1	1	NaN	45	1	45	2	121	221	321	NaN	521	0.0889857206493616	1	1	NaN	4323996.292854	NaN	4323997.2763945	4323997.79296948
47	20	1	0	90	36.1581920903955	36.241610738255	16	0.533366655707359	2	9	1	NaN	2	3	0.080651200461123	1	1	NaN	46	1	46	2	121	221	321	NaN	521	0.0717877680435777	1	0	NaN	4323998.7265825	NaN	4323999.7099787	4324000.22652133
47	20	1	0	90	36.1581920903955	36.241610738255	8	0.26668332785368	2	5	4	NaN	1	5	0.080651200461123	1	1	NaN	47	1	47	2	121	221	321	NaN	521	0.0718703689053655	1	1	NaN	4324001.1101409	NaN	4324002.0935273	4324002.61008253
47	20	1	0	90	36.1581920903955	36.241610738255	13	0.433360407762229	2	8	2	NaN	2	3	0.080651200461123	1	1	NaN	48	1	48	2	121	221	321	NaN	521	0.0725627681240439	1	0	NaN	4324003.493584	NaN	4324004.4771262	4324004.99365253
47	20	1	0	90	36.1581920903955	36.241610738255	21	0.700043735615909	2	12	1	NaN	2	4	0.080651200461123	1	1	NaN	49	1	49	2	121	221	321	NaN	521	0.464920569211245	1	0	NaN	4324005.8772724	NaN	4324006.8606761	4324007.37722393
47	20	1	0	90	36.1581920903955	36.241610738255	14	0.466695823743939	2	9	3	NaN	2	5	0.080651200461123	1	1	NaN	50	1	50	2	121	221	321	NaN	521	0.137824668549001	2	1	NaN	4324008.6607547	NaN	4324009.6442729	4324010.16082193
47	20	1	0	90	36.1581920903955	36.241610738255	10	0.3333541598171	2	11	6	NaN	2	3	0.080651200461123	1	1	NaN	51	1	51	2	121	221	321	NaN	521	0.167224368080497	2	1	NaN	4324011.1110154	NaN	4324012.0945544	4324012.61106163
47	20	1	0	90	36.1581920903955	36.241610738255	14	0.466695823743939	2	1	4	NaN	1	4	0.080651200461123	1	1	NaN	52	1	52	2	121	221	321	NaN	521	0.0104236211627722	1	1	NaN	4324013.5946857	NaN	4324014.5781046	4324015.09465288
47	20	1	0	90	36.1581920903955	36.241610738255	21	0.700043735615909	2	7	1	NaN	2	4	0.080651200461123	1	1	NaN	53	1	53	2	121	221	321	NaN	521	0.0627070209011436	2	1	NaN	4324015.911603	NaN	4324016.8949939	4324017.41154358
47	20	1	0	90	36.1581920903955	36.241610738255	7	0.23334791187197	2	10	3	NaN	2	4	0.080651200461123	1	1	NaN	54	1	54	2	121	221	321	NaN	521	0.0712287686765194	2	1	NaN	4324018.2951507	NaN	4324019.2785533	4324019.79509953
47	20	1	0	90	36.1581920903955	36.241610738255	9	0.30001874383539	2	4	3	NaN	1	3	0.080651200461123	1	1	NaN	55	1	55	2	121	221	321	NaN	521	0.0103985201567411	1	1	NaN	4324020.6786473	NaN	4324021.6621263	4324022.17867758
47	20	1	0	90	36.1581920903955	36.241610738255	21	0.700043735615909	2	8	6	NaN	2	4	0.080651200461123	1	1	NaN	56	1	56	2	121	221	321	NaN	521	0.0104121686890721	2	1	NaN	4324022.995502	NaN	4324023.9790239	4324024.49556643
47	20	1	0	90	36.1581920903955	36.241610738255	13	0.433360407762229	2	1	3	NaN	1	5	0.080651200461123	1	1	NaN	57	1	57	2	121	221	321	NaN	521	0.0104055209085345	1	1	NaN	4324025.3126	NaN	4324026.2959168	4324026.81245448
47	20	1	0	90	36.1581920903955	36.241610738255	20	0.666708319634199	2	1	3	NaN	1	4	0.080651200461123	1	1	NaN	58	1	58	2	121	221	321	NaN	521	0.0103376312181354	1	1	NaN	4324027.6294117	NaN	4324028.6128041	4324029.12935397
47	20	1	0	90	36.1581920903955	36.241610738255	6	0.20001249589026	2	3	4	NaN	1	3	0.080651200461123	1	1	NaN	59	1	59	2	121	221	321	NaN	521	0.019781868904829	1	1	NaN	4324029.9462675	NaN	4324030.9297291	4324031.44624053
47	20	1	0	90	36.1581920903955	36.241610738255	6	0.20001249589026	2	1	3	NaN	1	3	0.080651200461123	1	1	NaN	60	1	60	2	121	221	321	NaN	521	0.0104259690269828	1	1	NaN	4324032.2798853	NaN	4324033.2632559	4324033.77980653
47	20	1	0	90	36.1581920903955	36.241610738255	9	0.30001874383539	2	6	4	NaN	1	5	0.080651200461123	1	1	NaN	61	1	61	2	121	221	321	NaN	521	0.0256639691069722	1	1	NaN	4324034.5966184	NaN	4324035.5801562	4324036.09669743
47	20	1	0	90	36.1581920903955	36.241610738255	15	0.500031239725649	2	3	1	NaN	1	4	0.080651200461123	1	1	NaN	62	1	62	2	121	221	321	NaN	521	0.0762065686285496	1	1	NaN	4324036.9303913	NaN	4324037.9137237	4324038.43026513
47	20	1	0	90	36.1581920903955	36.241610738255	21	0.700043735615909	2	9	1	NaN	2	5	0.080651200461123	1	1	NaN	63	1	63	2	121	221	321	NaN	521	0.0845395149663091	1	0	NaN	4324039.3137846	NaN	4324040.2972922	4324040.81382858
47	20	1	0	90	36.1581920903955	36.241610738255	23	0.766714567579329	2	11	4	NaN	2	3	0.080651200461123	1	1	NaN	64	2	1	2	121	221	321	NaN	521	0.207739968784153	1	0	NaN	4324119.2550481	NaN	4324120.2384558	4324120.75500233
47	20	1	0	90	36.1581920903955	36.241610738255	19	0.633372903652489	2	1	1	NaN	1	4	0.080651200461123	1	1	NaN	65	2	2	2	121	221	321	NaN	521	0.178110568784177	2	0	NaN	4324121.7886498	NaN	4324122.7720365	4324123.28858763
47	20	1	0	90	36.1581920903955	36.241610738255	24	0.800049983561039	2	10	3	NaN	2	3	0.080651200461123	1	1	NaN	66	2	3	2	121	221	321	NaN	521	0.0375956371426582	2	1	NaN	4324124.288888	NaN	4324125.2722856	4324125.78883946
47	20	1	0	90	36.1581920903955	36.241610738255	18	0.600037487670779	2	2	1	NaN	1	4	0.080651200461123	1	1	NaN	67	2	4	2	121	221	321	NaN	521	0.0392564684152603	1	1	NaN	4324126.6390246	NaN	4324127.6225175	4324128.13906353
47	20	1	0	90	36.1581920903955	36.241610738255	10	0.3333541598171	2	10	1	NaN	2	5	0.080651200461123	1	1	NaN	68	2	5	2	121	221	321	NaN	521	0.0103993201628327	1	0	NaN	4324128.9893404	NaN	4324129.9727397	4324130.48928998
47	20	1	0	90	36.1581920903955	36.241610738255	12	0.400024991780519	2	2	5	NaN	1	3	0.080651200461123	1	1	NaN	69	2	6	2	121	221	321	NaN	521	0.0444161687046289	1	1	NaN	4324131.306237	NaN	4324132.2896406	4324132.80618023
47	20	1	0	90	36.1581920903955	36.241610738255	20	0.666708319634199	2	2	6	NaN	1	3	0.080651200461123	1	1	NaN	70	2	7	2	121	221	321	NaN	521	0.0620204638689756	2	0	NaN	4324133.6563526	NaN	4324134.6398714	4324135.15641834
47	20	1	0	90	36.1581920903955	36.241610738255	9	0.30001874383539	2	1	4	NaN	1	3	0.080651200461123	1	1	NaN	71	2	8	2	121	221	321	NaN	521	0.0103904204443097	1	1	NaN	4324136.1233651	NaN	4324137.1067686	4324137.62331628
47	20	1	0	90	36.1581920903955	36.241610738255	22	0.733379151597619	2	10	5	NaN	2	4	0.080651200461123	1	1	NaN	72	2	9	2	121	221	321	NaN	521	0.061510568484664	2	1	NaN	4324138.4569471	NaN	4324139.4403392	4324139.95688613
47	20	1	0	90	36.1581920903955	36.241610738255	18	0.600037487670779	2	6	4	NaN	1	3	0.080651200461123	1	1	NaN	73	2	10	2	121	221	321	NaN	521	0.0306379683315754	1	1	NaN	4324140.8237295	NaN	4324141.807209	4324142.32378733
47	20	1	0	90	36.1581920903955	36.241610738255	20	0.666708319634199	2	5	5	NaN	1	3	0.080651200461123	1	1	NaN	74	2	11	2	121	221	321	NaN	521	0.0104594686999917	2	0	NaN	4324143.174062	NaN	4324144.1574625	4324144.67401273
47	20	1	0	90	36.1581920903955	36.241610738255	23	0.766714567579329	2	10	1	NaN	2	5	0.080651200461123	1	1	NaN	75	2	12	2	121	221	321	NaN	521	0.0103807738050818	2	1	NaN	4324145.490836	NaN	4324146.4743532	4324146.99090953
47	20	1	0	90	36.1581920903955	36.241610738255	15	0.500031239725649	2	6	4	NaN	1	4	0.080651200461123	1	1	NaN	76	2	13	2	121	221	321	NaN	521	0.0306680416688323	1	1	NaN	4324147.8079014	NaN	4324148.7912505	4324149.30780796
47	20	1	0	90	36.1581920903955	36.241610738255	14	0.466695823743939	2	8	1	NaN	2	5	0.080651200461123	1	1	NaN	77	2	14	2	121	221	321	NaN	521	0.0724328681826591	1	0	NaN	4324150.1580728	NaN	4324151.1414881	4324151.65802613
47	20	1	0	90	36.1581920903955	36.241610738255	24	0.800049983561039	2	1	3	NaN	1	4	0.080651200461123	1	1	NaN	78	2	15	2	121	221	321	NaN	521	0.0570067204535007	2	0	NaN	4324152.5416758	NaN	4324153.5250523	4324154.04160548
47	20	1	0	90	36.1581920903955	36.241610738255	0	0	1	1	3	NaN	1	4	0.080651200461123	1	1	NaN	79	2	16	2	111	211	311	NaN	511	0.0420094206929207	1	1	NaN	4324154.9085263	NaN	4324155.8919571	4324156.40850418
47	20	1	0	90	36.1581920903955	36.241610738255	20	0.666708319634199	2	8	2	NaN	2	4	0.080651200461123	1	1	NaN	80	2	17	2	121	221	321	NaN	521	0.0431579686701298	2	1	NaN	4324157.2754525	NaN	4324158.2588532	4324158.77539533
47	20	1	0	90	36.1581920903955	36.241610738255	11	0.36668957579881	2	12	2	NaN	2	5	0.080651200461123	1	1	NaN	81	2	18	2	121	221	321	NaN	521	0.0368292210623622	2	1	NaN	4324159.6255463	NaN	4324160.6090747	4324161.12562998
47	20	1	0	90	36.1581920903955	36.241610738255	8	0.26668332785368	2	6	2	NaN	1	4	0.080651200461123	1	1	NaN	82	2	19	2	121	221	321	NaN	521	0.0146021153777838	1	1	NaN	4324161.9759095	NaN	4324162.959308	4324163.47586008
47	20	1	0	90	36.1581920903955	36.241610738255	9	0.30001874383539	2	11	3	NaN	2	5	0.080651200461123	1	1	NaN	83	2	20	2	121	221	321	NaN	521	0.0104284156113863	2	1	NaN	4324164.3094422	NaN	4324165.292868	4324165.80942418
47	20	1	0	90	36.1581920903955	36.241610738255	20	0.666708319634199	2	11	3	NaN	2	3	0.080651200461123	1	1	NaN	84	2	21	2	121	221	321	NaN	521	0.0103929741308093	2	1	NaN	4324166.6264112	NaN	4324167.6097844	4324168.12631973
47	20	1	0	90	36.1581920903955	36.241610738255	14	0.466695823743939	2	11	5	NaN	2	5	0.080651200461123	1	1	NaN	85	2	22	2	121	221	321	NaN	521	0.0472535155713558	2	1	NaN	4324168.9432555	NaN	4324169.926686	4324170.44320178
47	20	1	0	90	36.1581920903955	36.241610738255	16	0.533366655707359	2	7	5	NaN	2	4	0.080651200461123	1	1	NaN	86	2	23	2	121	221	321	NaN	521	0.0103953210636973	2	1	NaN	4324171.3101014	NaN	4324172.2935712	4324172.81011248
47	20	1	0	90	36.1581920903955	36.241610738255	0	0	1	4	2	NaN	1	4	0.080651200461123	1	1	NaN	87	2	24	2	111	211	311	NaN	511	0.0103977210819721	1	1	NaN	4324173.6270559	NaN	4324174.6104654	4324175.12700478
47	20	1	0	90	36.1581920903955	36.241610738255	13	0.433360407762229	2	12	5	NaN	2	4	0.080651200461123	1	1	NaN	88	2	25	2	121	221	321	NaN	521	0.0305269686505198	2	1	NaN	4324175.9439725	NaN	4324176.9273285	4324177.44390733
47	20	1	0	90	36.1581920903955	36.241610738255	21	0.700043735615909	2	7	1	NaN	2	4	0.080651200461123	1	1	NaN	89	2	26	2	121	221	321	NaN	521	0.552254089154303	2	1	NaN	4324178.2941722	NaN	4324179.2775731	4324179.79412601
47	20	1	0	90	36.1581920903955	36.241610738255	24	0.800049983561039	2	5	6	NaN	1	4	0.080651200461123	1	1	NaN	90	2	27	2	121	221	321	NaN	521	0.461591769009829	2	0	NaN	4324181.1611149	NaN	4324182.1445213	4324182.66106623
47	20	1	0	90	36.1581920903955	36.241610738255	19	0.633372903652489	2	2	2	NaN	1	4	0.080651200461123	1	1	NaN	91	2	28	2	121	221	321	NaN	521	0.0104158688336611	2	0	NaN	4324183.9279446	NaN	4324184.9114477	4324185.42800843
47	20	1	0	90	36.1581920903955	36.241610738255	15	0.500031239725649	2	4	3	NaN	1	5	0.080651200461123	1	1	NaN	92	2	29	2	121	221	321	NaN	521	0.137037320062518	2	0	NaN	4324186.2616975	NaN	4324187.2450254	4324187.76157988
47	20	1	0	90	36.1581920903955	36.241610738255	8	0.26668332785368	2	9	3	NaN	2	4	0.080651200461123	1	1	NaN	93	2	30	2	121	221	321	NaN	521	0.0627877693623304	1	0	NaN	4324188.7118428	NaN	4324189.695153	4324190.21181083
47	20	1	0	90	36.1581920903955	36.241610738255	16	0.533366655707359	2	8	3	NaN	2	3	0.080651200461123	1	1	NaN	94	2	31	2	121	221	321	NaN	521	0.0312326205894351	2	1	NaN	4324191.095456	NaN	4324192.078866	4324192.59538658
47	20	1	0	90	36.1581920903955	36.241610738255	6	0.20001249589026	2	3	5	NaN	1	3	0.080651200461123	1	1	NaN	95	2	32	2	121	221	321	NaN	521	0.0569663364440203	1	1	NaN	4324193.4455807	NaN	4324194.4290669	4324194.94562056
47	20	1	0	90	36.1581920903955	36.241610738255	14	0.466695823743939	2	4	3	NaN	1	3	0.080651200461123	1	1	NaN	96	2	33	2	121	221	321	NaN	521	0.209818716160953	2	0	NaN	4324195.8124616	NaN	4324196.7959608	4324197.31250908
47	20	1	0	90	36.1581920903955	36.241610738255	23	0.766714567579329	2	3	6	NaN	1	5	0.080651200461123	1	1	NaN	97	2	34	2	121	221	321	NaN	521	0.124446020461619	1	1	NaN	4324198.3461352	NaN	4324199.3295475	4324199.84608518
47	20	1	0	90	36.1581920903955	36.241610738255	25	0.833385399542749	2	3	5	NaN	1	4	0.080651200461123	1	1	NaN	98	2	35	2	121	221	321	NaN	521	0.0663605686277151	1	1	NaN	4324200.7963834	NaN	4324201.7797807	4324202.29632483
47	20	1	0	90	36.1581920903955	36.241610738255	16	0.533366655707359	2	12	6	NaN	2	4	0.080651200461123	1	1	NaN	99	2	36	2	121	221	321	NaN	521	0.0506199207156897	2	1	NaN	4324203.1799481	NaN	4324204.1633534	4324204.67990328
47	20	1	0	90	36.1581920903955	36.241610738255	25	0.833385399542749	2	5	6	NaN	1	4	0.080651200461123	1	1	NaN	100	2	37	2	121	221	321	NaN	521	0.0196896204724908	1	1	NaN	4324205.54688	NaN	4324206.5302595	4324207.04680228
47	20	1	0	90	36.1581920903955	36.241610738255	16	0.533366655707359	2	1	1	NaN	1	4	0.080651200461123	1	1	NaN	101	2	38	2	121	221	321	NaN	521	0.158262068405747	1	1	NaN	4324207.8804102	NaN	4324208.863811	4324209.38036113
47	20	1	0	90	36.1581920903955	36.241610738255	21	0.700043735615909	2	10	4	NaN	2	3	0.080651200461123	1	1	NaN	102	2	39	2	121	221	321	NaN	521	0.0752646680921316	1	0	NaN	4324210.3471905	NaN	4324211.3307183	4324211.84726573
47	20	1	0	90	36.1581920903955	36.241610738255	9	0.30001874383539	2	11	6	NaN	2	3	0.080651200461123	1	1	NaN	103	2	40	2	121	221	321	NaN	521	0.0361445099115372	2	1	NaN	4324212.730874	NaN	4324213.7143107	4324214.23082889
47	20	1	0	90	36.1581920903955	36.241610738255	23	0.766714567579329	2	1	4	NaN	1	3	0.080651200461123	1	1	NaN	104	2	41	2	121	221	321	NaN	521	0.0534506682306528	1	1	NaN	4324215.0809883	NaN	4324216.0645647	4324216.58105893
47	20	1	0	90	36.1581920903955	36.241610738255	11	0.36668957579881	2	12	6	NaN	2	5	0.080651200461123	1	1	NaN	105	2	42	2	121	221	321	NaN	521	0.0467613209038973	2	1	NaN	4324217.4478922	NaN	4324218.4314297	4324218.94797118
47	20	1	0	90	36.1581920903955	36.241610738255	6	0.20001249589026	2	6	5	NaN	1	4	0.080651200461123	1	1	NaN	106	2	43	2	121	221	321	NaN	521	0.0104285152629018	1	1	NaN	4324219.7981297	NaN	4324220.7816485	4324221.29819028
47	20	1	0	90	36.1581920903955	36.241610738255	19	0.633372903652489	2	8	5	NaN	2	4	0.080651200461123	1	1	NaN	107	2	44	2	121	221	321	NaN	521	0.0104094203561544	2	1	NaN	4324222.1318041	NaN	4324223.1151977	4324223.63176138
47	20	1	0	90	36.1581920903955	36.241610738255	10	0.3333541598171	2	5	2	NaN	1	4	0.080651200461123	1	1	NaN	108	2	45	2	121	221	321	NaN	521	0.66993254236877	1	1	NaN	4324224.448696	NaN	4324225.4321157	4324225.94865576
47	20	1	0	90	36.1581920903955	36.241610738255	25	0.833385399542749	2	7	3	NaN	2	4	0.080651200461123	1	1	NaN	109	2	46	2	121	221	321	NaN	521	0.214381768368185	2	1	NaN	4324227.4324291	NaN	4324228.4157164	4324228.93226793
47	20	1	0	90	36.1581920903955	36.241610738255	22	0.733379151597619	2	7	4	NaN	2	4	0.080651200461123	1	1	NaN	110	2	47	2	121	221	321	NaN	521	0.0808896161615849	2	1	NaN	4324229.9658053	NaN	4324230.9493333	4324231.46586128
47	20	1	0	90	36.1581920903955	36.241610738255	12	0.400024991780519	2	10	5	NaN	2	3	0.080651200461123	1	1	NaN	111	2	48	2	121	221	321	NaN	521	0.0166114680469036	2	1	NaN	4324232.3660971	NaN	4324233.3496029	4324233.86608753
47	20	1	0	90	36.1581920903955	36.241610738255	22	0.733379151597619	2	7	4	NaN	2	4	0.080651200461123	1	1	NaN	112	2	49	2	121	221	321	NaN	521	0.0104243690147996	2	1	NaN	4324234.6997089	NaN	4324235.6830901	4324236.19965573
47	20	1	0	90	36.1581920903955	36.241610738255	20	0.666708319634199	2	3	2	NaN	1	4	0.080651200461123	1	1	NaN	113	2	50	2	121	221	321	NaN	521	0.0700190691277385	1	1	NaN	4324237.0166187	NaN	4324237.9999779	4324238.51654133
47	20	1	0	90	36.1581920903955	36.241610738255	17	0.566702071689069	2	2	4	NaN	1	4	0.080651200461123	1	1	NaN	114	2	51	2	121	221	321	NaN	521	0.121193768456578	1	1	NaN	4324239.7334033	NaN	4324240.7169344	4324241.23347983
47	20	1	0	90	36.1581920903955	36.241610738255	0	0	1	1	5	NaN	1	5	0.080651200461123	1	1	NaN	115	2	52	2	111	211	311	NaN	511	0.0104245692491531	1	1	NaN	4324242.1671013	NaN	4324243.1505005	4324243.66705483
47	20	1	0	90	36.1581920903955	36.241610738255	13	0.433360407762229	2	5	5	NaN	1	3	0.080651200461123	1	1	NaN	116	2	53	2	121	221	321	NaN	521	0.0104116685688496	2	0	NaN	4324244.483995	NaN	4324245.4674012	4324245.98394903
47	20	1	0	90	36.1581920903955	36.241610738255	21	0.700043735615909	2	5	5	NaN	1	3	0.080651200461123	1	1	NaN	117	2	54	2	121	221	321	NaN	521	0.16565396822989	1	1	NaN	4324246.8008922	NaN	4324247.7842972	4324248.30083353
47	20	1	0	90	36.1581920903955	36.241610738255	20	0.666708319634199	2	3	3	NaN	1	4	0.080651200461123	1	1	NaN	118	2	55	2	121	221	321	NaN	521	0.0822089686989784	1	1	NaN	4324249.2844722	NaN	4324250.2679156	4324250.78442403
47	20	1	0	90	36.1581920903955	36.241610738255	11	0.36668957579881	2	11	3	NaN	2	3	0.080651200461123	1	1	NaN	119	2	56	2	121	221	321	NaN	521	0.0104299690574408	2	1	NaN	4324251.6847038	NaN	4324252.6680846	4324253.18465123
47	20	1	0	90	36.1581920903955	36.241610738255	8	0.26668332785368	2	2	1	NaN	1	3	0.080651200461123	1	1	NaN	120	2	57	2	121	221	321	NaN	521	0.0104143684729934	1	1	NaN	4324254.0017167	NaN	4324254.9849984	4324255.50154153
47	20	1	0	90	36.1581920903955	36.241610738255	9	0.30001874383539	2	8	1	NaN	2	5	0.080651200461123	1	1	NaN	121	2	58	2	121	221	321	NaN	521	0.104246514849365	2	1	NaN	4324256.3184276	NaN	4324257.3018862	4324257.81843298
47	20	1	0	90	36.1581920903955	36.241610738255	24	0.800049983561039	2	1	4	NaN	1	5	0.080651200461123	1	1	NaN	122	2	59	2	121	221	321	NaN	521	0.039342968724668	1	1	NaN	4324258.7354393	NaN	4324259.718797	4324260.23533673
47	20	1	0	90	36.1581920903955	36.241610738255	6	0.20001249589026	2	11	5	NaN	2	5	0.080651200461123	1	1	NaN	123	2	60	2	121	221	321	NaN	521	0.0890965685248375	2	1	NaN	4324261.0856325	NaN	4324262.0690278	4324262.58556863
47	20	1	0	90	36.1581920903955	36.241610738255	7	0.23334791187197	2	1	5	NaN	1	4	0.080651200461123	1	1	NaN	124	2	61	2	121	221	321	NaN	521	0.0103990202769637	1	1	NaN	4324263.4858653	NaN	4324264.4692611	4324264.98581728
47	20	1	0	90	36.1581920903955	36.241610738255	7	0.23334791187197	2	1	6	NaN	1	3	0.080651200461123	1	1	NaN	125	2	62	2	121	221	321	NaN	521	0.227217041887343	2	0	NaN	4324265.8194364	NaN	4324266.8028429	4324267.31938376
47	20	1	0	90	36.1581920903955	36.241610738255	22	0.733379151597619	2	12	4	NaN	2	3	0.080651200461123	1	1	NaN	126	2	63	2	121	221	321	NaN	521	0.109179221093655	1	0	NaN	4324268.3696968	NaN	4324269.3530991	4324269.86962518
47	20	1	0	90	36.1581920903955	36.241610738255	20	0.666708319634199	2	6	3	NaN	1	5	0.080651200461123	1	1	NaN	127	3	1	2	121	221	321	NaN	521	0.152007021009922	1	1	NaN	4324313.5907709	NaN	4324314.5741723	4324315.09072558
47	20	1	0	90	36.1581920903955	36.241610738255	20	0.666708319634199	2	7	5	NaN	2	4	0.080651200461123	1	1	NaN	128	3	2	2	121	221	321	NaN	521	0.421326820738614	2	1	NaN	4324316.0576711	NaN	4324317.0409781	4324317.55763818
47	20	1	0	90	36.1581920903955	36.241610738255	6	0.20001249589026	2	11	5	NaN	2	5	0.080651200461123	1	1	NaN	129	3	3	2	121	221	321	NaN	521	0.215362869203091	2	1	NaN	4324318.7911653	NaN	4324319.7746862	4324320.29123383
47	20	1	0	90	36.1581920903955	36.241610738255	25	0.833385399542749	2	6	3	NaN	1	3	0.080651200461123	1	1	NaN	130	3	4	2	121	221	321	NaN	521	0.138047626242042	1	1	NaN	4324321.3248585	NaN	4324322.3082644	4324322.82480927
47	20	1	0	90	36.1581920903955	36.241610738255	25	0.833385399542749	2	9	6	NaN	2	3	0.080651200461123	1	1	NaN	131	3	5	2	121	221	321	NaN	521	0.239904620684683	1	0	NaN	4324323.7751243	NaN	4324324.7585346	4324325.27505398
47	20	1	0	90	36.1581920903955	36.241610738255	14	0.466695823743939	2	4	2	NaN	1	5	0.080651200461123	1	1	NaN	132	3	6	2	121	221	321	NaN	521	0.041511869058013	2	0	NaN	4324326.3253494	NaN	4324327.3087515	4324327.82530383
47	20	1	0	90	36.1581920903955	36.241610738255	20	0.666708319634199	2	9	2	NaN	2	4	0.080651200461123	1	1	NaN	133	3	7	2	121	221	321	NaN	521	0.0351497214287519	1	0	NaN	4324328.6755884	NaN	4324329.6589907	4324330.17553778
47	20	1	0	90	36.1581920903955	36.241610738255	17	0.566702071689069	2	9	6	NaN	2	4	0.080651200461123	1	1	NaN	134	3	8	2	121	221	321	NaN	521	0.0609694691374898	1	0	NaN	4324331.0258459	NaN	4324332.0092234	4324332.52576813
47	20	1	0	90	36.1581920903955	36.241610738255	8	0.26668332785368	2	8	3	NaN	2	4	0.080651200461123	1	1	NaN	135	3	9	2	121	221	321	NaN	521	0.0103885205462575	2	1	NaN	4324333.392724	NaN	4324334.3761254	4324334.89266768
47	20	1	0	90	36.1581920903955	36.241610738255	6	0.20001249589026	2	5	1	NaN	1	5	0.080651200461123	1	1	NaN	136	3	10	2	121	221	321	NaN	521	0.0333600686863065	1	1	NaN	4324335.7094868	NaN	4324336.6930375	4324337.20955023
47	20	1	0	90	36.1581920903955	36.241610738255	0	0	1	5	3	NaN	1	3	0.080651200461123	1	1	NaN	137	3	11	2	111	211	311	NaN	511	0.067000568844378	1	1	NaN	4324338.0597135	NaN	4324339.043245	4324339.55978283
47	20	1	0	90	36.1581920903955	36.241610738255	25	0.833385399542749	2	6	2	NaN	1	3	0.080651200461123	1	1	NaN	138	3	12	2	121	221	321	NaN	521	0.0433804681524634	1	1	NaN	4324340.4434024	NaN	4324341.4268423	4324341.94334933
47	20	1	0	90	36.1581920903955	36.241610738255	14	0.466695823743939	2	9	1	NaN	2	5	0.080651200461123	1	1	NaN	139	3	13	2	121	221	321	NaN	521	0.0850492678582668	2	1	NaN	4324342.7936339	NaN	4324343.7770357	4324344.29359263
47	20	1	0	90	36.1581920903955	36.241610738255	23	0.766714567579329	2	5	2	NaN	1	3	0.080651200461123	1	1	NaN	140	3	14	2	121	221	321	NaN	521	0.0130063211545348	1	1	NaN	4324345.1938718	NaN	4324346.1773184	4324346.69382158
47	20	1	0	90	36.1581920903955	36.241610738255	25	0.833385399542749	2	10	4	NaN	2	4	0.080651200461123	1	1	NaN	141	3	15	2	121	221	321	NaN	521	0.0104278679937124	1	0	NaN	4324347.5107728	NaN	4324348.4941829	4324349.01071053
47	20	1	0	90	36.1581920903955	36.241610738255	19	0.633372903652489	2	5	4	NaN	1	3	0.080651200461123	1	1	NaN	142	3	16	2	121	221	321	NaN	521	0.0912374202162027	1	1	NaN	4324349.8275171	NaN	4324350.8110593	4324351.32761508
47	20	1	0	90	36.1581920903955	36.241610738255	13	0.433360407762229	2	9	4	NaN	2	3	0.080651200461123	1	1	NaN	143	3	17	2	121	221	321	NaN	521	0.0104165691882372	2	1	NaN	4324352.2610917	NaN	4324353.2446339	4324353.76118193
47	20	1	0	90	36.1581920903955	36.241610738255	13	0.433360407762229	2	2	6	NaN	1	5	0.080651200461123	1	1	NaN	144	3	18	2	121	221	321	NaN	521	0.0928526213392615	2	0	NaN	4324354.5781217	NaN	4324355.5615193	4324356.07808028
47	20	1	0	90	36.1581920903955	36.241610738255	19	0.633372903652489	2	3	1	NaN	1	3	0.080651200461123	1	1	NaN	145	3	19	2	121	221	321	NaN	521	0.0104088205844164	1	1	NaN	4324356.9783675	NaN	4324357.9617618	4324358.47831598
47	20	1	0	90	36.1581920903955	36.241610738255	9	0.30001874383539	2	7	6	NaN	2	5	0.080651200461123	1	1	NaN	146	3	20	2	121	221	321	NaN	521	0.0104139680042863	2	1	NaN	4324359.3119045	NaN	4324360.2953058	4324360.81187203
47	20	1	0	90	36.1581920903955	36.241610738255	13	0.433360407762229	2	11	1	NaN	2	3	0.080651200461123	1	1	NaN	147	3	21	2	121	221	321	NaN	521	0.0103919208049774	2	1	NaN	4324361.6288106	NaN	4324362.6122219	4324363.12878708
47	20	1	0	90	36.1581920903955	36.241610738255	14	0.466695823743939	2	2	5	NaN	1	3	0.080651200461123	1	1	NaN	148	3	22	2	121	221	321	NaN	521	0.0608378686010838	2	0	NaN	4324363.9457484	NaN	4324364.9291025	4324365.44565263
47	20	1	0	90	36.1581920903955	36.241610738255	15	0.500031239725649	2	1	1	NaN	1	4	0.080651200461123	1	1	NaN	149	3	23	2	121	221	321	NaN	521	0.0778851201757789	2	0	NaN	4324366.3124836	NaN	4324367.2960099	4324367.81255908
47	20	1	0	90	36.1581920903955	36.241610738255	13	0.433360407762229	2	5	4	NaN	1	4	0.080651200461123	1	1	NaN	150	3	24	2	121	221	321	NaN	521	0.0940192202106118	2	0	NaN	4324368.7128043	NaN	4324369.6962499	4324370.21279938
47	20	1	0	90	36.1581920903955	36.241610738255	13	0.433360407762229	2	12	3	NaN	2	3	0.080651200461123	1	1	NaN	151	3	25	2	121	221	321	NaN	521	0.0104138683527708	2	1	NaN	4324371.1630088	NaN	4324372.1465134	4324372.66302703
47	20	1	0	90	36.1581920903955	36.241610738255	24	0.800049983561039	2	12	3	NaN	2	5	0.080651200461123	1	1	NaN	152	3	26	2	121	221	321	NaN	521	0.0103916209191084	2	1	NaN	4324373.4799563	NaN	4324374.4633724	4324374.97995028
47	20	1	0	90	36.1581920903955	36.241610738255	0	0	1	12	2	NaN	2	3	0.080651200461123	1	1	NaN	153	3	27	2	111	211	311	NaN	511	0.530077920295298	2	1	NaN	4324375.7967529	NaN	4324376.7802774	4324377.29682908
47	20	1	0	90	36.1581920903955	36.241610738255	17	0.566702071689069	2	8	3	NaN	2	5	0.080651200461123	1	1	NaN	154	3	28	2	121	221	321	NaN	521	0.127620820887387	2	1	NaN	4324378.6471434	NaN	4324379.6305514	4324380.14711128
47	20	1	0	90	36.1581920903955	36.241610738255	17	0.566702071689069	2	1	1	NaN	1	3	0.080651200461123	1	1	NaN	155	3	29	2	121	221	321	NaN	521	0.0104311155155301	1	1	NaN	4324381.0973948	NaN	4324382.0807982	4324382.59734498
47	20	1	0	90	36.1581920903955	36.241610738255	22	0.733379151597619	2	5	2	NaN	1	3	0.080651200461123	1	1	NaN	156	3	30	2	121	221	321	NaN	521	0.111771821044385	1	1	NaN	4324383.4309698	NaN	4324384.4143642	4324384.93090488
47	20	1	0	90	36.1581920903955	36.241610738255	16	0.533366655707359	2	1	6	NaN	1	3	0.080651200461123	1	1	NaN	157	3	31	2	121	221	321	NaN	521	0.0543150687590241	1	1	NaN	4324385.8645247	NaN	4324386.8479276	4324387.36447443
47	20	1	0	90	36.1581920903955	36.241610738255	8	0.26668332785368	2	3	1	NaN	1	5	0.080651200461123	1	1	NaN	158	3	32	2	121	221	321	NaN	521	0.0316092204302549	1	1	NaN	4324388.2312781	NaN	4324389.2148351	4324389.73138098
47	20	1	0	90	36.1581920903955	36.241610738255	8	0.26668332785368	2	10	2	NaN	2	5	0.080651200461123	1	1	NaN	159	3	33	2	121	221	321	NaN	521	0.0104300687089562	2	1	NaN	4324390.5816862	NaN	4324391.5650385	4324392.08159953
47	20	1	0	90	36.1581920903955	36.241610738255	7	0.23334791187197	2	5	4	NaN	1	3	0.080651200461123	1	1	NaN	160	3	34	2	121	221	321	NaN	521	0.100348819978535	2	0	NaN	4324392.8984026	NaN	4324393.8819618	4324394.39850318
47	20	1	0	90	36.1581920903955	36.241610738255	16	0.533366655707359	2	9	1	NaN	2	4	0.080651200461123	1	1	NaN	161	3	35	2	121	221	321	NaN	521	0.0103963203728199	1	0	NaN	4324395.315462	NaN	4324396.2988547	4324396.81540878
47	20	1	0	90	36.1581920903955	36.241610738255	14	0.466695823743939	2	6	2	NaN	1	5	0.080651200461123	1	1	NaN	162	3	36	2	121	221	321	NaN	521	0.0305945677682757	1	1	NaN	4324397.6322262	NaN	4324398.615743	4324399.13228813
47	20	1	0	90	36.1581920903955	36.241610738255	24	0.800049983561039	2	5	3	NaN	1	3	0.080651200461123	1	1	NaN	163	3	37	2	121	221	321	NaN	521	0.0959681160748005	1	1	NaN	4324399.9826528	NaN	4324400.9659798	4324401.48252108
47	20	1	0	90	36.1581920903955	36.241610738255	14	0.466695823743939	2	12	2	NaN	2	3	0.080651200461123	1	1	NaN	164	3	38	2	121	221	321	NaN	521	0.0480405744165182	2	1	NaN	4324402.3826907	NaN	4324403.3661956	4324403.88276263
47	20	1	0	90	36.1581920903955	36.241610738255	0	0	1	5	4	NaN	1	3	0.080651200461123	1	1	NaN	165	3	39	2	111	211	311	NaN	511	0.010496168397367	1	1	NaN	4324404.7497074	NaN	4324405.7331095	4324406.24966893
47	20	1	0	90	36.1581920903955	36.241610738255	16	0.533366655707359	2	2	1	NaN	1	3	0.080651200461123	1	1	NaN	166	3	40	2	121	221	321	NaN	521	0.0522300694137812	1	1	NaN	4324407.0666016	NaN	4324408.0500039	4324408.56655173
47	20	1	0	90	36.1581920903955	36.241610738255	24	0.800049983561039	2	7	3	NaN	2	5	0.080651200461123	1	1	NaN	167	3	41	2	121	221	321	NaN	521	0.0103955212980509	2	1	NaN	4324409.4335091	NaN	4324410.416901	4324410.93345988
47	20	1	0	90	36.1581920903955	36.241610738255	9	0.30001874383539	2	9	4	NaN	2	3	0.080651200461123	1	1	NaN	168	3	42	2	121	221	321	NaN	521	0.0403327159583569	1	0	NaN	4324411.7503988	NaN	4324412.7337973	4324413.25033858
47	20	1	0	90	36.1581920903955	36.241610738255	17	0.566702071689069	2	7	5	NaN	2	5	0.080651200461123	1	1	NaN	169	3	43	2	121	221	321	NaN	521	0.0104135684669018	2	1	NaN	4324414.5172997	NaN	4324415.5007418	4324416.01727873
47	20	1	0	90	36.1581920903955	36.241610738255	13	0.433360407762229	2	3	2	NaN	1	5	0.080651200461123	1	1	NaN	170	3	44	2	121	221	321	NaN	521	0.116329768672585	1	1	NaN	4324416.8509066	NaN	4324417.8342911	4324418.35084483
47	20	1	0	90	36.1581920903955	36.241610738255	9	0.30001874383539	2	2	3	NaN	1	5	0.080651200461123	1	1	NaN	171	3	45	2	121	221	321	NaN	521	0.12261316832155	1	1	NaN	4324419.2844832	NaN	4324420.2677815	4324420.78441693
47	20	1	0	90	36.1581920903955	36.241610738255	21	0.700043735615909	2	1	2	NaN	1	5	0.080651200461123	1	1	NaN	172	3	46	2	121	221	321	NaN	521	0.160797268152237	1	1	NaN	4324421.7180486	NaN	4324422.7014532	4324423.21798943
47	20	1	0	90	36.1581920903955	36.241610738255	9	0.30001874383539	2	3	5	NaN	1	5	0.080651200461123	1	1	NaN	173	3	47	2	121	221	321	NaN	521	0.0859496686607599	1	1	NaN	4324424.1849143	NaN	4324425.1683344	4324425.68490253
47	20	1	0	90	36.1581920903955	36.241610738255	17	0.566702071689069	2	10	2	NaN	2	3	0.080651200461123	1	1	NaN	174	3	48	2	121	221	321	NaN	521	0.0856242207810283	2	1	NaN	4324426.5851864	NaN	4324427.5685781	4324428.08514148
47	20	1	0	90	36.1581920903955	36.241610738255	10	0.3333541598171	2	7	3	NaN	2	5	0.080651200461123	1	1	NaN	175	3	49	2	121	221	321	NaN	521	0.885468469001353	2	1	NaN	4324428.9854169	NaN	4324429.9688052	4324430.48536633
47	20	1	0	90	36.1581920903955	36.241610738255	10	0.3333541598171	2	6	1	NaN	1	4	0.080651200461123	1	1	NaN	176	3	50	2	121	221	321	NaN	521	0.197351768612862	1	1	NaN	4324432.1857369	NaN	4324433.1691607	4324433.68568133
47	20	1	0	90	36.1581920903955	36.241610738255	18	0.600037487670779	2	7	6	NaN	2	3	0.080651200461123	1	1	NaN	177	3	51	2	121	221	321	NaN	521	0.185794220305979	2	1	NaN	4324435.0693419	NaN	4324436.0527532	4324436.56929958
47	20	1	0	90	36.1581920903955	36.241610738255	13	0.433360407762229	2	6	3	NaN	1	5	0.080651200461123	1	1	NaN	178	3	52	2	121	221	321	NaN	521	0.0104097686707973	1	1	NaN	4324437.9196327	NaN	4324438.9030254	4324439.41957433
47	20	1	0	90	36.1581920903955	36.241610738255	24	0.800049983561039	2	4	2	NaN	1	5	0.080651200461123	1	1	NaN	179	3	53	2	121	221	321	NaN	521	0.16644053068012	1	1	NaN	4324440.5365284	NaN	4324441.5199521	4324442.03650417
47	20	1	0	90	36.1581920903955	36.241610738255	12	0.400024991780519	2	9	3	NaN	2	4	0.080651200461123	1	1	NaN	180	3	54	2	121	221	321	NaN	521	0.266920768655837	2	1	NaN	4324443.020015	NaN	4324444.0035265	4324444.52007473
47	20	1	0	90	36.1581920903955	36.241610738255	16	0.533366655707359	2	11	4	NaN	2	3	0.080651200461123	1	1	NaN	181	3	55	2	121	221	321	NaN	521	0.117172921076417	2	1	NaN	4324445.7537475	NaN	4324446.7371092	4324447.25368258
47	20	1	0	90	36.1581920903955	36.241610738255	21	0.700043735615909	2	11	1	NaN	2	5	0.080651200461123	1	1	NaN	182	3	56	2	121	221	321	NaN	521	0.0102771418169141	2	1	NaN	4324448.1873045	NaN	4324449.1707115	4324449.68726376
47	20	1	0	90	36.1581920903955	36.241610738255	11	0.36668957579881	2	9	4	NaN	2	3	0.080651200461123	1	1	NaN	183	3	57	2	121	221	321	NaN	521	0.0103816734626889	2	1	NaN	4324450.5207679	NaN	4324451.5042647	4324452.02081363
47	20	1	0	90	36.1581920903955	36.241610738255	21	0.700043735615909	2	8	5	NaN	2	5	0.080651200461123	1	1	NaN	184	3	58	2	121	221	321	NaN	521	0.0104113686829805	2	1	NaN	4324453.0710934	NaN	4324454.0545086	4324454.57106113
47	20	1	0	90	36.1581920903955	36.241610738255	20	0.666708319634199	2	12	2	NaN	2	4	0.080651200461123	1	1	NaN	185	3	59	2	121	221	321	NaN	521	0.0849748412147164	2	1	NaN	4324455.7380134	NaN	4324456.7214707	4324457.23800146
47	20	1	0	90	36.1581920903955	36.241610738255	11	0.36668957579881	2	1	5	NaN	1	5	0.080651200461123	1	1	NaN	186	3	60	2	121	221	321	NaN	521	0.0846653198823333	1	1	NaN	4324458.1382681	NaN	4324459.1217434	4324459.63823198
47	20	1	0	90	36.1581920903955	36.241610738255	14	0.466695823743939	2	2	1	NaN	1	3	0.080651200461123	1	1	NaN	187	3	61	2	121	221	321	NaN	521	0.0763213206082582	1	1	NaN	4324460.5385128	NaN	4324461.5219041	4324462.03846638
47	20	1	0	90	36.1581920903955	36.241610738255	18	0.600037487670779	2	12	5	NaN	2	4	0.080651200461123	1	1	NaN	188	3	62	2	121	221	321	NaN	521	0.092478821054101	2	1	NaN	4324462.9387374	NaN	4324463.9221216	4324464.43869998
47	20	1	0	90	36.1581920903955	36.241610738255	20	0.666708319634199	2	5	3	NaN	1	3	0.080651200461123	1	1	NaN	189	3	63	2	121	221	321	NaN	521	0.260252968408167	1	1	NaN	4324465.338959	NaN	4324466.3223559	4324466.83893273
47	20	1	0	90	36.1581920903955	36.241610738255	21	0.700043735615909	2	10	3	NaN	2	5	0.080651200461123	1	1	NaN	190	4	1	2	121	221	321	NaN	521	0.181309320963919	2	1	NaN	4324512.1934915	NaN	4324513.1769983	4324513.69353118
47	20	1	0	90	36.1581920903955	36.241610738255	12	0.400024991780519	2	11	6	NaN	2	4	0.080651200461123	1	1	NaN	191	4	2	2	121	221	321	NaN	521	0.0197798786684871	2	1	NaN	4324515.0271731	NaN	4324516.010591	4324516.52714332
47	20	1	0	90	36.1581920903955	36.241610738255	0	0	1	11	2	NaN	2	5	0.080651200461123	1	1	NaN	192	4	3	2	111	211	311	NaN	511	0.0382832679897547	2	1	NaN	4324517.3607523	NaN	4324518.3440456	4324518.86069473
47	20	1	0	90	36.1581920903955	36.241610738255	23	0.766714567579329	2	7	3	NaN	2	4	0.080651200461123	1	1	NaN	193	4	4	2	121	221	321	NaN	521	0.0104124685749412	2	1	NaN	4324519.7108686	NaN	4324520.6943792	4324521.21092503
47	20	1	0	90	36.1581920903955	36.241610738255	16	0.533366655707359	2	4	1	NaN	1	3	0.080651200461123	1	1	NaN	194	4	5	2	121	221	321	NaN	521	0.0504800211638212	1	1	NaN	4324522.044539	NaN	4324523.027927	4324523.54449228
47	20	1	0	90	36.1581920903955	36.241610738255	15	0.500031239725649	2	2	4	NaN	1	5	0.080651200461123	1	1	NaN	195	4	6	2	121	221	321	NaN	521	0.123754220083356	1	1	NaN	4324524.4113337	NaN	4324525.3947627	4324525.91139768
47	20	1	0	90	36.1581920903955	36.241610738255	17	0.566702071689069	2	3	4	NaN	1	4	0.080651200461123	1	1	NaN	196	4	7	2	121	221	321	NaN	521	0.0742024686187506	2	0	NaN	4324526.8450234	NaN	4324527.8284288	4324528.34496933
47	20	1	0	90	36.1581920903955	36.241610738255	15	0.500031239725649	2	6	6	NaN	1	5	0.080651200461123	1	1	NaN	197	4	8	2	121	221	321	NaN	521	0.0104120681062341	1	1	NaN	4324529.2284524	NaN	4324530.2119791	4324530.72852383
47	20	1	0	90	36.1581920903955	36.241610738255	20	0.666708319634199	2	12	4	NaN	2	3	0.080651200461123	1	1	NaN	198	4	9	2	121	221	321	NaN	521	0.0104270158335567	2	1	NaN	4324531.562109	NaN	4324532.5455943	4324533.06208628
47	20	1	0	90	36.1581920903955	36.241610738255	19	0.633372903652489	2	8	1	NaN	2	4	0.080651200461123	1	1	NaN	199	4	10	2	121	221	321	NaN	521	0.0160092208534479	2	1	NaN	4324533.8790311	NaN	4324534.8624641	4324535.37899168
47	20	1	0	90	36.1581920903955	36.241610738255	20	0.666708319634199	2	9	4	NaN	2	5	0.080651200461123	1	1	NaN	200	4	11	2	121	221	321	NaN	521	0.0104276686906815	1	0	NaN	4324536.2126042	NaN	4324537.1959835	4324537.71254663
47	20	1	0	90	36.1581920903955	36.241610738255	21	0.700043735615909	2	6	6	NaN	1	3	0.080651200461123	1	1	NaN	201	4	12	2	121	221	321	NaN	521	0.0934672206640244	1	1	NaN	4324538.5293523	NaN	4324539.5129438	4324540.02944568
47	20	1	0	90	36.1581920903955	36.241610738255	22	0.733379151597619	2	3	1	NaN	1	4	0.080651200461123	1	1	NaN	202	4	13	2	121	221	321	NaN	521	0.0103938207030296	1	1	NaN	4324540.9297406	NaN	4324541.9131395	4324542.42968198
47	20	1	0	90	36.1581920903955	36.241610738255	8	0.26668332785368	2	3	3	NaN	1	4	0.080651200461123	1	1	NaN	203	4	14	2	121	221	321	NaN	521	0.0164836691692472	1	1	NaN	4324543.2467127	NaN	4324544.2300295	4324544.74656893
47	20	1	0	90	36.1581920903955	36.241610738255	0	0	1	9	6	NaN	2	4	0.080651200461123	1	1	NaN	204	4	15	2	111	211	311	NaN	511	0.0269647687673569	1	0	NaN	4324545.580194	NaN	4324546.5635844	4324547.08012663
47	20	1	0	90	36.1581920903955	36.241610738255	12	0.400024991780519	2	1	6	NaN	1	5	0.080651200461123	1	1	NaN	205	4	16	2	121	221	321	NaN	521	0.010430215857923	1	1	NaN	4324547.9304146	NaN	4324548.9137995	4324549.43036008
47	20	1	0	90	36.1581920903955	36.241610738255	6	0.20001249589026	2	7	6	NaN	2	3	0.080651200461123	1	1	NaN	206	4	17	2	121	221	321	NaN	521	0.0638011684641242	2	1	NaN	4324550.2472517	NaN	4324551.2307196	4324551.74725153
47	20	1	0	90	36.1581920903955	36.241610738255	14	0.466695823743939	2	7	1	NaN	2	4	0.080651200461123	1	1	NaN	207	4	18	2	121	221	321	NaN	521	0.0963794691488147	2	1	NaN	4324552.6308751	NaN	4324553.6142718	4324554.13082733
47	20	1	0	90	36.1581920903955	36.241610738255	19	0.633372903652489	2	10	1	NaN	2	5	0.080651200461123	1	1	NaN	208	4	19	2	121	221	321	NaN	521	0.128270220942795	2	1	NaN	4324555.0311033	NaN	4324556.0145128	4324556.53106318
47	20	1	0	90	36.1581920903955	36.241610738255	6	0.20001249589026	2	4	4	NaN	1	3	0.080651200461123	1	1	NaN	209	4	20	2	121	221	321	NaN	521	0.237695663236082	1	1	NaN	4324557.4813676	NaN	4324558.4647646	4324558.98130294
47	20	1	0	90	36.1581920903955	36.241610738255	20	0.666708319634199	2	11	2	NaN	2	3	0.080651200461123	1	1	NaN	210	4	21	2	121	221	321	NaN	521	0.27953926846385	1	0	NaN	4324560.0315983	NaN	4324561.0149937	4324561.53154353
47	20	1	0	90	36.1581920903955	36.241610738255	15	0.500031239725649	2	2	3	NaN	1	3	0.080651200461123	1	1	NaN	211	4	22	2	121	221	321	NaN	521	0.0103792743757367	1	1	NaN	4324562.6318489	NaN	4324563.6152711	4324564.13180583
47	20	1	0	90	36.1581920903955	36.241610738255	10	0.3333541598171	2	7	2	NaN	2	5	0.080651200461123	1	1	NaN	212	4	23	2	121	221	321	NaN	521	0.01042006816715	2	1	NaN	4324564.9654154	NaN	4324565.9487089	4324566.46536003
47	20	1	0	90	36.1581920903955	36.241610738255	25	0.833385399542749	2	7	2	NaN	2	4	0.080651200461123	1	1	NaN	213	4	24	2	121	221	321	NaN	521	0.0104103684425354	1	0	NaN	4324567.2823161	NaN	4324568.2657078	4324568.78225823
47	20	1	0	90	36.1581920903955	36.241610738255	14	0.466695823743939	2	6	6	NaN	1	3	0.080651200461123	1	1	NaN	214	4	25	2	121	221	321	NaN	521	0.135285468772054	1	1	NaN	4324569.6158631	NaN	4324570.5992723	4324571.11582843
47	20	1	0	90	36.1581920903955	36.241610738255	6	0.20001249589026	2	5	3	NaN	1	3	0.080651200461123	1	1	NaN	215	4	26	2	121	221	321	NaN	521	0.0104114692658186	1	1	NaN	4324572.0661162	NaN	4324573.0495119	4324573.56605913
47	20	1	0	90	36.1581920903955	36.241610738255	10	0.3333541598171	2	9	3	NaN	2	4	0.080651200461123	1	1	NaN	216	4	27	2	121	221	321	NaN	521	0.0794139681383967	1	0	NaN	4324574.3996735	NaN	4324575.3830805	4324575.89962353
47	20	1	0	90	36.1581920903955	36.241610738255	14	0.466695823743939	2	3	3	NaN	1	3	0.080651200461123	1	1	NaN	217	4	28	2	121	221	321	NaN	521	0.119227020069957	1	1	NaN	4324576.7999108	NaN	4324577.7833095	4324578.29986788
47	20	1	0	90	36.1581920903955	36.241610738255	23	0.766714567579329	2	8	2	NaN	2	4	0.080651200461123	1	1	NaN	218	4	29	2	121	221	321	NaN	521	0.0104116685688496	2	1	NaN	4324579.2334856	NaN	4324580.2168622	4324580.73342923
47	20	1	0	90	36.1581920903955	36.241610738255	11	0.36668957579881	2	1	2	NaN	1	5	0.080651200461123	1	1	NaN	219	4	30	2	121	221	321	NaN	521	0.0104002207517624	1	1	NaN	4324581.5671267	NaN	4324582.550491	4324583.06700028
47	20	1	0	90	36.1581920903955	36.241610738255	19	0.633372903652489	2	1	4	NaN	1	3	0.080651200461123	1	1	NaN	220	4	31	2	121	221	321	NaN	521	0.0423391200602055	1	1	NaN	4324583.900606	NaN	4324584.8840054	4324585.40056448
47	20	1	0	90	36.1581920903955	36.241610738255	23	0.766714567579329	2	9	5	NaN	2	4	0.080651200461123	1	1	NaN	221	4	32	2	121	221	321	NaN	521	0.0523134684190154	2	1	NaN	4324586.250843	NaN	4324587.2343096	4324587.75079813
47	20	1	0	90	36.1581920903955	36.241610738255	17	0.566702071689069	2	11	4	NaN	2	3	0.080651200461123	1	1	NaN	222	4	33	2	121	221	321	NaN	521	0.556530673056841	1	0	NaN	4324588.6344308	NaN	4324589.6178281	4324590.13435253
47	20	1	0	90	36.1581920903955	36.241610738255	11	0.36668957579881	2	8	4	NaN	2	5	0.080651200461123	1	1	NaN	223	4	34	2	121	221	321	NaN	521	0.12940928991884	2	1	NaN	4324591.5181137	NaN	4324592.5014315	4324593.01797601
47	20	1	0	90	36.1581920903955	36.241610738255	8	0.26668332785368	2	7	3	NaN	2	3	0.080651200461123	1	1	NaN	224	4	35	2	121	221	321	NaN	521	0.103642315603793	2	1	NaN	4324593.9515082	NaN	4324594.9349934	4324595.45153438
47	20	1	0	90	36.1581920903955	36.241610738255	25	0.833385399542749	2	8	2	NaN	2	3	0.080651200461123	1	1	NaN	225	4	36	2	121	221	321	NaN	521	0.022647668607533	2	1	NaN	4324596.3684987	NaN	4324597.3518934	4324597.86843913
47	20	1	0	90	36.1581920903955	36.241610738255	17	0.566702071689069	2	8	4	NaN	2	5	0.080651200461123	1	1	NaN	226	4	37	2	121	221	321	NaN	521	0.08906857855618	2	1	NaN	4324598.7019571	NaN	4324599.6854653	4324600.20203202
47	20	1	0	90	36.1581920903955	36.241610738255	10	0.3333541598171	2	12	6	NaN	2	5	0.080651200461123	1	1	NaN	227	4	38	2	121	221	321	NaN	521	0.0408513210713863	2	1	NaN	4324601.1021925	NaN	4324602.0857006	4324602.60224648
47	20	1	0	90	36.1581920903955	36.241610738255	25	0.833385399542749	2	9	5	NaN	2	3	0.080651200461123	1	1	NaN	228	4	39	2	121	221	321	NaN	521	0.0126772206276655	2	1	NaN	4324603.6025083	NaN	4324604.5859351	4324605.10249168
47	20	1	0	90	36.1581920903955	36.241610738255	23	0.766714567579329	2	12	3	NaN	2	5	0.080651200461123	1	1	NaN	229	4	40	2	121	221	321	NaN	521	0.079177868552506	2	1	NaN	4324605.9360883	NaN	4324606.9195151	4324607.43605303
47	20	1	0	90	36.1581920903955	36.241610738255	20	0.666708319634199	2	10	4	NaN	2	3	0.080651200461123	1	1	NaN	230	4	41	2	121	221	321	NaN	521	0.0554600199684501	2	1	NaN	4324608.3195413	NaN	4324609.303114	4324609.81962348
47	20	1	0	90	36.1581920903955	36.241610738255	22	0.733379151597619	2	9	5	NaN	2	5	0.080651200461123	1	1	NaN	231	4	42	2	121	221	321	NaN	521	0.0792874693870544	1	0	NaN	4324611.1200581	NaN	4324612.103377	4324612.61988453
47	20	1	0	90	36.1581920903955	36.241610738255	17	0.566702071689069	2	11	6	NaN	2	3	0.080651200461123	1	1	NaN	232	4	43	2	121	221	321	NaN	521	0.010396420955658	2	1	NaN	4324613.7535335	NaN	4324614.7369357	4324615.25347958
47	20	1	0	90	36.1581920903955	36.241610738255	13	0.433360407762229	2	4	6	NaN	1	3	0.080651200461123	1	1	NaN	233	4	44	2	121	221	321	NaN	521	0.448067720979452	2	0	NaN	4324616.0870953	NaN	4324617.0705279	4324617.58704698
47	20	1	0	90	36.1581920903955	36.241610738255	11	0.36668957579881	2	9	2	NaN	2	5	0.080651200461123	1	1	NaN	234	4	45	2	121	221	321	NaN	521	0.056988668628037	1	0	NaN	4324618.8540453	NaN	4324619.8374459	4324620.35397903
47	20	1	0	90	36.1581920903955	36.241610738255	6	0.20001249589026	2	10	3	NaN	2	3	0.080651200461123	1	1	NaN	235	4	46	2	121	221	321	NaN	521	0.0622185692191124	2	1	NaN	4324621.5209827	NaN	4324622.5043574	4324623.02091463
47	20	1	0	90	36.1581920903955	36.241610738255	12	0.400024991780519	2	12	6	NaN	2	4	0.080651200461123	1	1	NaN	236	4	47	2	121	221	321	NaN	521	0.0104137687012553	2	1	NaN	4324623.8878703	NaN	4324624.8712579	4324625.38780293
47	20	1	0	90	36.1581920903955	36.241610738255	15	0.500031239725649	2	11	5	NaN	2	3	0.080651200461123	1	1	NaN	237	4	48	2	121	221	321	NaN	521	0.0578562682494521	2	1	NaN	4324626.2214333	NaN	4324627.2048246	4324627.72137063
47	20	1	0	90	36.1581920903955	36.241610738255	18	0.600037487670779	2	3	3	NaN	1	3	0.080651200461123	1	1	NaN	238	4	49	2	121	221	321	NaN	521	0.0189222684130073	1	1	NaN	4324628.5883206	NaN	4324629.571741	4324630.08826993
47	20	1	0	90	36.1581920903955	36.241610738255	21	0.700043735615909	2	12	1	NaN	2	5	0.080651200461123	1	1	NaN	239	4	50	2	121	221	321	NaN	521	0.101335268467665	2	1	NaN	4324630.9217839	NaN	4324631.9053295	4324632.42183973
47	20	1	0	90	36.1581920903955	36.241610738255	21	0.700043735615909	2	6	3	NaN	1	3	0.080651200461123	1	1	NaN	240	4	51	2	121	221	321	NaN	521	0.300745569169521	1	1	NaN	4324633.3388157	NaN	4324634.3221795	4324634.83873283
47	20	1	0	90	36.1581920903955	36.241610738255	18	0.600037487670779	2	1	6	NaN	1	3	0.080651200461123	1	1	NaN	241	4	52	2	121	221	321	NaN	521	0.155727668665349	1	1	NaN	4324635.9557107	NaN	4324636.939161	4324637.45566553
47	20	1	0	90	36.1581920903955	36.241610738255	17	0.566702071689069	2	4	4	NaN	1	4	0.080651200461123	1	1	NaN	242	4	53	2	121	221	321	NaN	521	0.104546467773616	1	1	NaN	4324638.422611	NaN	4324639.4060374	4324639.92256263
47	20	1	0	90	36.1581920903955	36.241610738255	24	0.800049983561039	2	9	3	NaN	2	4	0.080651200461123	1	1	NaN	243	4	54	2	121	221	321	NaN	521	0.0104127684608102	1	0	NaN	4324640.8395163	NaN	4324641.822918	4324642.33947833
47	20	1	0	90	36.1581920903955	36.241610738255	20	0.666708319634199	2	4	6	NaN	1	4	0.080651200461123	1	1	NaN	244	4	55	2	121	221	321	NaN	521	0.0181538686156273	1	1	NaN	4324643.1730827	NaN	4324644.1565344	4324644.67303513
47	20	1	0	90	36.1581920903955	36.241610738255	14	0.466695823743939	2	5	6	NaN	1	3	0.080651200461123	1	1	NaN	245	4	56	2	121	221	321	NaN	521	0.0606002630665898	2	0	NaN	4324645.5065785	NaN	4324646.4900503	4324647.00659964
47	20	1	0	90	36.1581920903955	36.241610738255	7	0.23334791187197	2	4	3	NaN	1	4	0.080651200461123	1	1	NaN	246	4	57	2	121	221	321	NaN	521	0.0104274684563279	1	1	NaN	4324647.8736632	NaN	4324648.8569331	4324649.37348963
47	20	1	0	90	36.1581920903955	36.241610738255	23	0.766714567579329	2	4	1	NaN	1	5	0.080651200461123	1	1	NaN	247	4	58	2	121	221	321	NaN	521	0.0104141682386398	1	1	NaN	4324650.2069846	NaN	4324651.19051	4324651.70705863
47	20	1	0	90	36.1581920903955	36.241610738255	23	0.766714567579329	2	7	1	NaN	2	3	0.080651200461123	1	1	NaN	248	4	59	2	121	221	321	NaN	521	0.0103919208049774	2	1	NaN	4324652.9239944	NaN	4324653.9074289	4324654.42400198
47	20	1	0	90	36.1581920903955	36.241610738255	22	0.733379151597619	2	8	2	NaN	2	3	0.080651200461123	1	1	NaN	249	4	60	2	121	221	321	NaN	521	0.0104061681777239	2	1	NaN	4324655.5409376	NaN	4324656.5243618	4324657.04091773
47	20	1	0	90	36.1581920903955	36.241610738255	23	0.766714567579329	2	9	4	NaN	2	4	0.080651200461123	1	1	NaN	250	4	61	2	121	221	321	NaN	521	0.0104133691638708	2	1	NaN	4324657.8746297	NaN	4324658.8579275	4324659.37447693
47	20	1	0	90	36.1581920903955	36.241610738255	12	0.400024991780519	2	7	1	NaN	2	3	0.080651200461123	1	1	NaN	251	4	62	2	121	221	321	NaN	521	0.0104045206680894	2	1	NaN	4324660.1914199	NaN	4324661.1748179	4324661.69137528
47	20	1	0	90	36.1581920903955	36.241610738255	22	0.733379151597619	2	4	5	NaN	1	5	0.080651200461123	1	1	NaN	252	4	63	2	121	221	321	NaN	521	0.0589971309527755	1	1	NaN	4324662.508324	NaN	4324663.4917153	4324664.00826077
47	20	1	0	90	36.1581920903955	36.241610738255	18	0.600037487670779	2	11	3	NaN	2	5	0.080651200461123	1	1	NaN	253	5	1	2	121	221	321	NaN	521	0.0734358206391335	1	0	NaN	4324715.0300079	NaN	4324716.0135382	4324716.53008278
47	20	1	0	90	36.1581920903955	36.241610738255	21	0.700043735615909	2	9	3	NaN	2	4	0.080651200461123	1	1	NaN	254	5	2	2	121	221	321	NaN	521	0.737523169256747	1	0	NaN	4324717.4135732	NaN	4324718.3970956	4324718.91364203
47	20	1	0	90	36.1581920903955	36.241610738255	22	0.733379151597619	2	5	1	NaN	1	4	0.080651200461123	1	1	NaN	255	5	3	2	121	221	321	NaN	521	0.147352368570864	1	1	NaN	4324720.7639946	NaN	4324721.7474288	4324722.26396743
47	20	1	0	90	36.1581920903955	36.241610738255	11	0.36668957579881	2	10	3	NaN	2	3	0.080651200461123	1	1	NaN	256	5	4	2	121	221	321	NaN	521	0.0563598200678825	1	0	NaN	4324723.2309324	NaN	4324724.2143403	4324724.73088598
47	20	1	0	90	36.1581920903955	36.241610738255	16	0.533366655707359	2	3	6	NaN	1	3	0.080651200461123	1	1	NaN	257	5	5	2	121	221	321	NaN	521	0.0103942742571235	1	1	NaN	4324725.6145313	NaN	4324726.597904	4324727.11445283
47	20	1	0	90	36.1581920903955	36.241610738255	7	0.23334791187197	2	6	5	NaN	1	4	0.080651200461123	1	1	NaN	258	5	6	2	121	221	321	NaN	521	0.0192224206402898	1	1	NaN	4324727.9479359	NaN	4324728.9314529	4324729.44801648
47	20	1	0	90	36.1581920903955	36.241610738255	13	0.433360407762229	2	9	1	NaN	2	4	0.080651200461123	1	1	NaN	259	5	7	2	121	221	321	NaN	521	0.010397320613265	1	0	NaN	4324730.2815694	NaN	4324731.2650236	4324731.78157098
47	20	1	0	90	36.1581920903955	36.241610738255	9	0.30001874383539	2	10	1	NaN	2	4	0.080651200461123	1	1	NaN	260	5	8	2	121	221	321	NaN	521	0.0103910202160478	1	0	NaN	4324732.5983922	NaN	4324733.5819416	4324734.09847038
47	20	1	0	90	36.1581920903955	36.241610738255	24	0.800049983561039	2	9	2	NaN	2	3	0.080651200461123	1	1	NaN	261	5	9	2	121	221	321	NaN	521	0.0104043204337358	1	0	NaN	4324734.9153581	NaN	4324735.898841	4324736.41536128
47	20	1	0	90	36.1581920903955	36.241610738255	16	0.533366655707359	2	12	2	NaN	2	4	0.080651200461123	1	1	NaN	262	5	10	2	121	221	321	NaN	521	0.103105068206787	2	1	NaN	4324737.2323856	NaN	4324738.2156995	4324738.73224903
47	20	1	0	90	36.1581920903955	36.241610738255	21	0.700043735615909	2	5	6	NaN	1	4	0.080651200461123	1	1	NaN	263	5	11	2	121	221	321	NaN	521	0.0104098683223128	1	1	NaN	4324739.6492025	NaN	4324740.6326195	4324741.14916343
47	20	1	0	90	36.1581920903955	36.241610738255	19	0.633372903652489	2	2	4	NaN	1	4	0.080651200461123	1	1	NaN	264	5	12	2	121	221	321	NaN	521	0.49695052113384	1	1	NaN	4324741.9827657	NaN	4324742.9661656	4324743.48272088
47	20	1	0	90	36.1581920903955	36.241610738255	22	0.733379151597619	2	1	6	NaN	1	4	0.080651200461123	1	1	NaN	265	5	13	2	121	221	321	NaN	521	8.21657076850533	1	1	NaN	4324744.7829243	NaN	4324745.7664403	4324746.28299583
47	20	1	0	90	36.1581920903955	36.241610738255	23	0.766714567579329	2	11	2	NaN	2	4	0.080651200461123	1	1	NaN	266	5	14	2	121	221	321	NaN	521	0.146112320944667	2	1	NaN	4324755.317407	NaN	4324756.3008132	4324756.81736398
47	20	1	0	90	36.1581920903955	36.241610738255	25	0.833385399542749	2	8	1	NaN	2	3	0.080651200461123	1	1	NaN	267	5	15	2	121	221	321	NaN	521	0.063094369135797	2	1	NaN	4324757.7843227	NaN	4324758.7677295	4324759.28426663
47	20	1	0	90	36.1581920903955	36.241610738255	25	0.833385399542749	2	2	1	NaN	1	5	0.080651200461123	1	1	NaN	268	5	16	2	121	221	321	NaN	521	0.0104124685749412	1	1	NaN	4324760.1512089	NaN	4324761.1346549	4324761.65116703
47	20	1	0	90	36.1581920903955	36.241610738255	15	0.500031239725649	2	1	4	NaN	1	4	0.080651200461123	1	1	NaN	269	5	17	2	121	221	321	NaN	521	0.0527341207489371	1	1	NaN	4324762.8348119	NaN	4324763.8182179	4324764.33476808
47	20	1	0	90	36.1581920903955	36.241610738255	14	0.466695823743939	2	7	3	NaN	2	3	0.080651200461123	1	1	NaN	270	5	18	2	121	221	321	NaN	521	0.109730520285666	2	1	NaN	4324765.2017208	NaN	4324766.1851476	4324766.70166548
47	20	1	0	90	36.1581920903955	36.241610738255	7	0.23334791187197	2	2	2	NaN	1	5	0.080651200461123	1	1	NaN	271	5	19	2	121	221	321	NaN	521	0.0103957206010818	1	1	NaN	4324767.6184888	NaN	4324768.602023	4324769.11856868
47	20	1	0	90	36.1581920903955	36.241610738255	23	0.766714567579329	2	10	1	NaN	2	3	0.080651200461123	1	1	NaN	272	5	20	2	121	221	321	NaN	521	0.0797581784427166	1	0	NaN	4324769.935447	NaN	4324770.918954	4324771.43546472
47	20	1	0	90	36.1581920903955	36.241610738255	11	0.36668957579881	2	10	3	NaN	2	5	0.080651200461123	1	1	NaN	273	5	21	2	121	221	321	NaN	521	0.0104122683405876	2	1	NaN	4324772.3357475	NaN	4324773.3191478	4324773.83569513
47	20	1	0	90	36.1581920903955	36.241610738255	12	0.400024991780519	2	10	2	NaN	2	5	0.080651200461123	1	1	NaN	274	5	22	2	121	221	321	NaN	521	0.0103939203545451	2	1	NaN	4324774.6526343	NaN	4324775.6360361	4324776.15259378
47	20	1	0	90	36.1581920903955	36.241610738255	18	0.600037487670779	2	8	5	NaN	2	4	0.080651200461123	1	1	NaN	275	5	23	2	121	221	321	NaN	521	0.010406568646431	1	0	NaN	4324776.9862094	NaN	4324777.9696171	4324778.48614343
47	20	1	0	90	36.1581920903955	36.241610738255	7	0.23334791187197	2	11	5	NaN	2	4	0.080651200461123	1	1	NaN	276	5	24	2	121	221	321	NaN	521	0.168393569067121	2	1	NaN	4324779.3030268	NaN	4324780.2864881	4324780.80304703
47	20	1	0	90	36.1581920903955	36.241610738255	24	0.800049983561039	2	4	5	NaN	1	5	0.080651200461123	1	1	NaN	277	5	25	2	121	221	321	NaN	521	0.0104112690314651	1	1	NaN	4324781.786734	NaN	4324782.7700726	4324783.28661763
47	20	1	0	90	36.1581920903955	36.241610738255	23	0.766714567579329	2	5	6	NaN	1	5	0.080651200461123	1	1	NaN	278	5	26	2	121	221	321	NaN	521	0.0104195680469275	1	1	NaN	4324784.1202315	NaN	4324785.1036112	4324785.62018103
47	20	1	0	90	36.1581920903955	36.241610738255	12	0.400024991780519	2	8	6	NaN	2	4	0.080651200461123	1	1	NaN	279	5	27	2	121	221	321	NaN	521	0.210611031390727	2	1	NaN	4324786.4371297	NaN	4324787.420531	4324787.93707647
47	20	1	0	90	36.1581920903955	36.241610738255	25	0.833385399542749	2	11	6	NaN	2	5	0.080651200461123	1	1	NaN	280	5	28	2	121	221	321	NaN	521	0.0104118678718805	2	1	NaN	4324788.9707205	NaN	4324789.9540841	4324790.47066593
47	20	1	0	90	36.1581920903955	36.241610738255	22	0.733379151597619	2	10	5	NaN	2	4	0.080651200461123	1	1	NaN	281	5	29	2	121	221	321	NaN	521	0.0104052200913429	1	0	NaN	4324791.2876861	NaN	4324792.2710027	4324792.78755918
47	20	1	0	90	36.1581920903955	36.241610738255	20	0.666708319634199	2	6	2	NaN	1	5	0.080651200461123	1	1	NaN	282	5	30	2	121	221	321	NaN	521	0.0268068686127663	1	1	NaN	4324793.6044857	NaN	4324794.5879188	4324795.10444793
47	20	1	0	90	36.1581920903955	36.241610738255	18	0.600037487670779	2	7	2	NaN	2	5	0.080651200461123	1	1	NaN	283	5	31	2	121	221	321	NaN	521	0.0775157203897834	2	1	NaN	4324796.3379697	NaN	4324797.3215031	4324797.83805148
47	20	1	0	90	36.1581920903955	36.241610738255	18	0.600037487670779	2	6	1	NaN	1	3	0.080651200461123	1	1	NaN	284	5	32	2	121	221	321	NaN	521	0.101810268126428	1	1	NaN	4324798.7215711	NaN	4324799.7050598	4324800.22161413
47	20	1	0	90	36.1581920903955	36.241610738255	12	0.400024991780519	2	5	5	NaN	1	4	0.080651200461123	1	1	NaN	285	5	33	2	121	221	321	NaN	521	0.0929794684052467	1	1	NaN	4324801.1384869	NaN	4324802.1219712	4324802.63851653
47	20	1	0	90	36.1581920903955	36.241610738255	17	0.566702071689069	2	5	2	NaN	1	4	0.080651200461123	1	1	NaN	286	5	34	2	121	221	321	NaN	521	0.164524569176137	2	0	NaN	4324803.5388067	NaN	4324804.5222277	4324805.03874923
47	20	1	0	90	36.1581920903955	36.241610738255	15	0.500031239725649	2	8	3	NaN	2	4	0.080651200461123	1	1	NaN	287	5	35	2	121	221	321	NaN	521	0.0731194205582142	2	1	NaN	4324806.0223819	NaN	4324807.0057795	4324807.52233558
47	20	1	0	90	36.1581920903955	36.241610738255	6	0.20001249589026	2	8	5	NaN	2	4	0.080651200461123	1	1	NaN	288	5	36	2	121	221	321	NaN	521	0.0333481207489967	2	1	NaN	4324808.4059724	NaN	4324809.3893516	4324809.90589898
47	20	1	0	90	36.1581920903955	36.241610738255	9	0.30001874383539	2	5	5	NaN	1	4	0.080651200461123	1	1	NaN	289	5	37	2	121	221	321	NaN	521	0.0112912692129612	1	1	NaN	4324810.756057	NaN	4324811.7395784	4324812.25612743
47	20	1	0	90	36.1581920903955	36.241610738255	12	0.400024991780519	2	9	4	NaN	2	3	0.080651200461123	1	1	NaN	290	5	38	2	121	221	321	NaN	521	0.0536824213340878	1	0	NaN	4324813.0897604	NaN	4324814.0731393	4324814.58969218
47	20	1	0	90	36.1581920903955	36.241610738255	7	0.23334791187197	2	11	5	NaN	2	3	0.080651200461123	1	1	NaN	291	5	39	2	121	221	321	NaN	521	0.0103975208476186	2	1	NaN	4324815.4565339	NaN	4324816.4400413	4324816.95658878
47	20	1	0	90	36.1581920903955	36.241610738255	21	0.700043735615909	2	3	4	NaN	1	3	0.080651200461123	1	1	NaN	292	5	40	2	121	221	321	NaN	521	0.0572771206498146	1	1	NaN	4324817.7902006	NaN	4324818.7735993	4324819.29015778
47	20	1	0	90	36.1581920903955	36.241610738255	15	0.500031239725649	2	9	1	NaN	2	3	0.080651200461123	1	1	NaN	293	5	41	2	121	221	321	NaN	521	0.0425413213670254	1	0	NaN	4324820.1570975	NaN	4324821.1405041	4324821.65705298
47	20	1	0	90	36.1581920903955	36.241610738255	25	0.833385399542749	2	5	5	NaN	1	5	0.080651200461123	1	1	NaN	294	5	42	2	121	221	321	NaN	521	0.0104158688336611	1	1	NaN	4324822.5240179	NaN	4324823.5074108	4324824.02395013
47	20	1	0	90	36.1581920903955	36.241610738255	23	0.766714567579329	2	6	2	NaN	1	5	0.080651200461123	1	1	NaN	295	5	43	2	121	221	321	NaN	521	0.102585968561471	1	1	NaN	4324824.840895	NaN	4324825.8242937	4324826.34083663
47	20	1	0	90	36.1581920903955	36.241610738255	16	0.533366655707359	2	5	6	NaN	1	5	0.080651200461123	1	1	NaN	296	5	44	2	121	221	321	NaN	521	0.0272804209962487	1	1	NaN	4324827.7078316	NaN	4324828.6912381	4324829.20779768
47	20	1	0	90	36.1581920903955	36.241610738255	6	0.20001249589026	2	6	3	NaN	1	4	0.080651200461123	1	1	NaN	297	5	45	2	121	221	321	NaN	521	0.0104234684258699	1	1	NaN	4324830.0579789	NaN	4324831.0414729	4324831.55801693
47	20	1	0	90	36.1581920903955	36.241610738255	15	0.500031239725649	2	10	3	NaN	2	3	0.080651200461123	1	1	NaN	298	5	46	2	121	221	321	NaN	521	0.0399620207026601	1	0	NaN	4324832.39167	NaN	4324833.3750635	4324833.89158528
47	20	1	0	90	36.1581920903955	36.241610738255	11	0.36668957579881	2	6	1	NaN	1	5	0.080651200461123	1	1	NaN	299	5	47	2	121	221	321	NaN	521	0.0256831208243966	1	1	NaN	4324834.7418646	NaN	4324835.7252622	4324836.24181748
47	20	1	0	90	36.1581920903955	36.241610738255	25	0.833385399542749	2	10	2	NaN	2	4	0.080651200461123	1	1	NaN	300	5	48	2	121	221	321	NaN	521	0.0104116685688496	2	1	NaN	4324837.0921977	NaN	4324838.0754939	4324838.59204293
47	20	1	0	90	36.1581920903955	36.241610738255	16	0.533366655707359	2	10	4	NaN	2	5	0.080651200461123	1	1	NaN	301	5	49	2	121	221	321	NaN	521	0.0226060682907701	1	0	NaN	4324839.4088638	NaN	4324840.3923695	4324840.90893833
47	20	1	0	90	36.1581920903955	36.241610738255	9	0.30001874383539	2	9	4	NaN	2	5	0.080651200461123	1	1	NaN	302	5	50	2	121	221	321	NaN	521	0.0489290691912174	2	1	NaN	4324841.7425471	NaN	4324842.7259512	4324843.24250143
47	20	1	0	90	36.1581920903955	36.241610738255	19	0.633372903652489	2	11	1	NaN	2	3	0.080651200461123	1	1	NaN	303	5	51	2	121	221	321	NaN	521	0.0104297157377005	1	0	NaN	4324844.1094523	NaN	4324845.0928209	4324845.60939788
47	20	1	0	90	36.1581920903955	36.241610738255	14	0.466695823743939	2	5	1	NaN	1	3	0.080651200461123	1	1	NaN	304	5	52	2	121	221	321	NaN	521	0.0124608688056469	1	1	NaN	4324846.4430281	NaN	4324847.426417	4324847.94295663
47	20	1	0	90	36.1581920903955	36.241610738255	9	0.30001874383539	2	5	3	NaN	1	4	0.080651200461123	1	1	NaN	305	5	53	2	121	221	321	NaN	521	0.0156369153410196	1	1	NaN	4324848.7599028	NaN	4324849.7433083	4324850.25985298
47	20	1	0	90	36.1581920903955	36.241610738255	8	0.26668332785368	2	11	3	NaN	2	5	0.080651200461123	1	1	NaN	306	5	54	2	121	221	321	NaN	521	2.16203242074698	2	1	NaN	4324851.0934603	NaN	4324852.0768631	4324852.59342318
47	20	1	0	90	36.1581920903955	36.241610738255	10	0.3333541598171	2	4	6	NaN	1	3	0.080651200461123	1	1	NaN	307	5	55	2	121	221	321	NaN	521	0.286391915753484	1	1	NaN	4324855.5772576	NaN	4324856.560666	4324857.07718108
47	20	1	0	90	36.1581920903955	36.241610738255	17	0.566702071689069	2	5	1	NaN	1	3	0.080651200461123	1	1	NaN	308	5	56	2	121	221	321	NaN	521	0.0104113686829805	1	1	NaN	4324858.1774905	NaN	4324859.1608928	4324859.67743653
47	20	1	0	90	36.1581920903955	36.241610738255	24	0.800049983561039	2	6	2	NaN	1	3	0.080651200461123	1	1	NaN	309	5	57	2	121	221	321	NaN	521	0.0103974211961031	1	1	NaN	4324860.4942755	NaN	4324861.4778062	4324861.99434278
47	20	1	0	90	36.1581920903955	36.241610738255	22	0.733379151597619	2	2	3	NaN	1	5	0.080651200461123	1	1	NaN	310	5	58	2	121	221	321	NaN	521	0.0104128690436482	1	1	NaN	4324862.8112819	NaN	4324863.7946617	4324864.31122703
47	20	1	0	90	36.1581920903955	36.241610738255	7	0.23334791187197	2	7	2	NaN	2	3	0.080651200461123	1	1	NaN	311	5	59	2	121	221	321	NaN	521	0.0233618207275867	2	1	NaN	4324865.1282029	NaN	4324866.1115766	4324866.62812608
47	20	1	0	90	36.1581920903955	36.241610738255	24	0.800049983561039	2	11	4	NaN	2	4	0.080651200461123	1	1	NaN	312	5	60	2	121	221	321	NaN	521	0.0305191148072481	2	1	NaN	4324867.7446945	NaN	4324868.7285011	4324869.24504308
47	20	1	0	90	36.1581920903955	36.241610738255	15	0.500031239725649	2	5	4	NaN	1	3	0.080651200461123	1	1	NaN	313	5	61	2	121	221	321	NaN	521	0.0164028201252222	2	0	NaN	4324870.0953263	NaN	4324871.0787269	4324871.59528048
47	20	1	0	90	36.1581920903955	36.241610738255	10	0.3333541598171	2	5	3	NaN	1	3	0.080651200461123	1	1	NaN	314	5	62	2	121	221	321	NaN	521	0.0103982212021947	1	1	NaN	4324872.4288823	NaN	4324873.412298	4324873.92884548
47	20	1	0	90	36.1581920903955	36.241610738255	8	0.26668332785368	2	4	6	NaN	1	5	0.080651200461123	1	1	NaN	315	5	63	2	121	221	321	NaN	521	0.0289069684222341	1	1	NaN	4324874.7624536	NaN	4324875.7458544	4324876.26240343
47	20	1	0	90	36.1581920903955	36.241610738255	7	0.23334791187197	2	9	1	NaN	2	3	0.080651200461123	1	1	NaN	316	6	1	2	121	221	321	NaN	521	0.126177621074021	1	0	NaN	4325088.4334217	NaN	4325089.4168012	4325089.93335288
47	20	1	0	90	36.1581920903955	36.241610738255	23	0.766714567579329	2	2	1	NaN	1	3	0.080651200461123	1	1	NaN	317	6	2	2	121	221	321	NaN	521	0.0104140685871243	2	0	NaN	4325090.8836333	NaN	4325091.8670402	4325092.38359143
47	20	1	0	90	36.1581920903955	36.241610738255	13	0.433360407762229	2	4	1	NaN	1	4	0.080651200461123	1	1	NaN	318	6	3	2	121	221	321	NaN	521	0.0104025211185217	1	1	NaN	4325093.2005147	NaN	4325094.1839329	4325094.70048758
47	20	1	0	90	36.1581920903955	36.241610738255	15	0.500031239725649	2	5	2	NaN	1	3	0.080651200461123	1	1	NaN	319	6	4	2	121	221	321	NaN	521	0.610631020739675	2	0	NaN	4325095.5174208	NaN	4325096.5008139	4325097.01737898
47	20	1	0	90	36.1581920903955	36.241610738255	21	0.700043735615909	2	4	4	NaN	1	3	0.080651200461123	1	1	NaN	320	6	5	2	121	221	321	NaN	521	0.0615421682596207	2	0	NaN	4325098.4343897	NaN	4325099.4177942	4325099.93433183
47	20	1	0	90	36.1581920903955	36.241610738255	18	0.600037487670779	2	8	6	NaN	2	5	0.080651200461123	1	1	NaN	321	6	6	2	121	221	321	NaN	521	0.0104300687089562	1	0	NaN	4325100.8179416	NaN	4325101.8013455	4325102.31789353
47	20	1	0	90	36.1581920903955	36.241610738255	19	0.633372903652489	2	6	4	NaN	1	4	0.080651200461123	1	1	NaN	322	6	7	2	121	221	321	NaN	521	0.0104158688336611	1	1	NaN	4325103.1515184	NaN	4325104.134897	4325104.65145243
47	20	1	0	90	36.1581920903955	36.241610738255	10	0.3333541598171	2	6	1	NaN	1	3	0.080651200461123	1	1	NaN	323	6	8	2	121	221	321	NaN	521	0.0103951208293438	1	1	NaN	4325105.4683894	NaN	4325106.4518194	4325106.96836458
47	20	1	0	90	36.1581920903955	36.241610738255	8	0.26668332785368	2	1	4	NaN	1	4	0.080651200461123	1	1	NaN	324	6	9	2	121	221	321	NaN	521	0.0103473784402013	1	1	NaN	4325107.7852918	NaN	4325108.7686675	4325109.28525262
47	20	1	0	90	36.1581920903955	36.241610738255	17	0.566702071689069	2	4	4	NaN	1	5	0.080651200461123	1	1	NaN	325	6	10	2	121	221	321	NaN	521	0.737152419984341	1	1	NaN	4325110.1187821	NaN	4325111.102255	4325111.61880938
47	20	1	0	90	36.1581920903955	36.241610738255	25	0.833385399542749	2	11	4	NaN	2	4	0.080651200461123	1	1	NaN	326	6	11	2	121	221	321	NaN	521	0.0514950687065721	1	0	NaN	4325113.4524011	NaN	4325114.4359412	4325114.95247033
47	20	1	0	90	36.1581920903955	36.241610738255	25	0.833385399542749	2	3	6	NaN	1	3	0.080651200461123	1	1	NaN	327	6	12	2	121	221	321	NaN	521	0.0285570686683059	1	1	NaN	4325115.8194007	NaN	4325116.8028376	4325117.31937703
47	20	1	0	90	36.1581920903955	36.241610738255	17	0.566702071689069	2	3	5	NaN	1	5	0.080651200461123	1	1	NaN	328	6	13	2	121	221	321	NaN	521	0.0223187683150172	1	1	NaN	4325118.1696408	NaN	4325119.1530459	4325119.66961173
47	20	1	0	90	36.1581920903955	36.241610738255	15	0.500031239725649	2	9	2	NaN	2	5	0.080651200461123	1	1	NaN	329	6	14	2	121	221	321	NaN	521	0.0487555889412761	1	0	NaN	4325120.5032059	NaN	4325121.4866024	4325122.00316331
47	20	1	0	90	36.1581920903955	36.241610738255	8	0.26668332785368	2	11	1	NaN	2	3	0.080651200461123	1	1	NaN	330	6	15	2	121	221	321	NaN	521	0.0418544206768274	1	0	NaN	4325122.8701037	NaN	4325123.8535098	4325124.37006138
47	20	1	0	90	36.1581920903955	36.241610738255	12	0.400024991780519	2	4	1	NaN	1	5	0.080651200461123	1	1	NaN	331	6	16	2	121	221	321	NaN	521	0.0104076685383916	1	1	NaN	4325125.2203412	NaN	4325126.2037343	4325126.72027843
47	20	1	0	90	36.1581920903955	36.241610738255	15	0.500031239725649	2	7	2	NaN	2	4	0.080651200461123	1	1	NaN	332	6	17	2	121	221	321	NaN	521	0.0103979203850031	2	1	NaN	4325127.5539038	NaN	4325128.5373042	4325129.05384548
47	20	1	0	90	36.1581920903955	36.241610738255	12	0.400024991780519	2	6	4	NaN	1	4	0.080651200461123	1	1	NaN	333	6	18	2	121	221	321	NaN	521	0.0104141682386398	1	1	NaN	4325129.8874561	NaN	4325130.87086	4325131.38741253
47	20	1	0	90	36.1581920903955	36.241610738255	9	0.30001874383539	2	1	2	NaN	1	3	0.080651200461123	1	1	NaN	334	6	19	2	121	221	321	NaN	521	0.0105806151404977	1	1	NaN	4325132.2042551	NaN	4325133.1877498	4325133.70430608
47	20	1	0	90	36.1581920903955	36.241610738255	0	0	1	7	2	NaN	2	4	0.080651200461123	1	1	NaN	335	6	20	2	111	211	311	NaN	511	0.0460046688094735	2	1	NaN	4325134.5379545	NaN	4325135.5213316	4325136.03786473
47	20	1	0	90	36.1581920903955	36.241610738255	16	0.533366655707359	2	6	6	NaN	1	5	0.080651200461123	1	1	NaN	336	6	21	2	121	221	321	NaN	521	0.0104079684242606	1	1	NaN	4325136.9049129	NaN	4325137.8882138	4325138.40477013
47	20	1	0	90	36.1581920903955	36.241610738255	23	0.766714567579329	2	4	4	NaN	1	4	0.080651200461123	1	1	NaN	337	6	22	2	121	221	321	NaN	521	0.0104111209511757	1	1	NaN	4325139.2384128	NaN	4325140.2217758	4325140.73832688
47	20	1	0	90	36.1581920903955	36.241610738255	23	0.766714567579329	2	8	1	NaN	2	3	0.080651200461123	1	1	NaN	338	6	23	2	121	221	321	NaN	521	0.0104124685749412	2	1	NaN	4325141.5552693	NaN	4325142.5386702	4325143.05521323
47	20	1	0	90	36.1581920903955	36.241610738255	9	0.30001874383539	2	8	3	NaN	2	5	0.080651200461123	1	1	NaN	339	6	24	2	121	221	321	NaN	521	0.0551205789670348	2	1	NaN	4325143.8888409	NaN	4325144.8722532	4325145.38878552
47	20	1	0	90	36.1581920903955	36.241610738255	20	0.666708319634199	2	7	1	NaN	2	3	0.080651200461123	1	1	NaN	340	6	25	2	121	221	321	NaN	521	0.0721453204751015	2	1	NaN	4325146.2557335	NaN	4325147.2391379	4325147.75568368
47	20	1	0	90	36.1581920903955	36.241610738255	12	0.400024991780519	2	6	6	NaN	1	4	0.080651200461123	1	1	NaN	341	6	26	2	121	221	321	NaN	521	0.0104235149919987	2	0	NaN	4325148.6391813	NaN	4325149.6227224	4325150.13926348
47	20	1	0	90	36.1581920903955	36.241610738255	13	0.433360407762229	2	10	6	NaN	2	3	0.080651200461123	1	1	NaN	342	6	27	2	121	221	321	NaN	521	0.275720120407641	2	1	NaN	4325150.9560574	NaN	4325151.9396207	4325152.45614938
47	20	1	0	90	36.1581920903955	36.241610738255	18	0.600037487670779	2	10	6	NaN	2	4	0.080651200461123	1	1	NaN	343	6	28	2	121	221	321	NaN	521	0.412057326175272	1	0	NaN	4325153.5397778	NaN	4325154.5231994	4325155.03974057
47	20	1	0	90	36.1581920903955	36.241610738255	12	0.400024991780519	2	7	4	NaN	2	4	0.080651200461123	1	1	NaN	344	6	29	2	121	221	321	NaN	521	0.11181456875056	2	1	NaN	4325156.6400784	NaN	4325157.6234926	4325158.14002693
47	20	1	0	90	36.1581920903955	36.241610738255	21	0.700043735615909	2	11	5	NaN	2	5	0.080651200461123	1	1	NaN	345	6	30	2	121	221	321	NaN	521	0.111093115992844	2	1	NaN	4325159.0568427	NaN	4325160.0403816	4325160.55693178
47	20	1	0	90	36.1581920903955	36.241610738255	22	0.733379151597619	2	1	3	NaN	1	4	0.080651200461123	1	1	NaN	346	6	31	2	121	221	321	NaN	521	0.037394467741251	2	0	NaN	4325161.4905556	NaN	4325162.4739634	4325162.99050273
47	20	1	0	90	36.1581920903955	36.241610738255	0	0	1	3	6	NaN	1	5	0.080651200461123	1	1	NaN	347	6	32	2	111	211	311	NaN	511	0.0951867159456015	1	1	NaN	4325163.8408	NaN	4325164.8241974	4325165.34073558
47	20	1	0	90	36.1581920903955	36.241610738255	11	0.36668957579881	2	2	4	NaN	1	5	0.080651200461123	1	1	NaN	348	6	33	2	121	221	321	NaN	521	0.078163668513298	1	1	NaN	4325166.257715	NaN	4325167.2410915	4325167.75763503
47	20	1	0	90	36.1581920903955	36.241610738255	9	0.30001874383539	2	7	5	NaN	2	4	0.080651200461123	1	1	NaN	349	6	34	2	121	221	321	NaN	521	0.0104565685614944	2	1	NaN	4325168.6411587	NaN	4325169.6246647	4325170.14120443
47	20	1	0	90	36.1581920903955	36.241610738255	7	0.23334791187197	2	10	5	NaN	2	5	0.080651200461123	1	1	NaN	350	6	35	2	121	221	321	NaN	521	0.025979420170188	2	1	NaN	4325170.9580339	NaN	4325171.9415556	4325172.45810838
47	20	1	0	90	36.1581920903955	36.241610738255	13	0.433360407762229	2	8	5	NaN	2	4	0.080651200461123	1	1	NaN	351	6	36	2	121	221	321	NaN	521	0.010453469119966	1	0	NaN	4325173.2915832	NaN	4325174.2751245	4325174.79166253
47	20	1	0	90	36.1581920903955	36.241610738255	19	0.633372903652489	2	7	2	NaN	2	5	0.080651200461123	1	1	NaN	352	6	37	2	121	221	321	NaN	521	0.0103988209739327	2	1	NaN	4325175.6252993	NaN	4325176.6086593	4325177.12523448
47	20	1	0	90	36.1581920903955	36.241610738255	25	0.833385399542749	2	1	5	NaN	1	5	0.080651200461123	1	1	NaN	353	6	38	2	121	221	321	NaN	521	0.0331887686625123	1	1	NaN	4325177.9588372	NaN	4325178.9423046	4325179.45878803
47	20	1	0	90	36.1581920903955	36.241610738255	11	0.36668957579881	2	2	5	NaN	1	5	0.080651200461123	1	1	NaN	354	6	39	2	121	221	321	NaN	521	0.0268692150712013	1	1	NaN	4325180.3090859	NaN	4325181.2924766	4325181.80901438
47	20	1	0	90	36.1581920903955	36.241610738255	14	0.466695823743939	2	12	2	NaN	2	5	0.080651200461123	1	1	NaN	355	6	40	2	121	221	321	NaN	521	0.0104102687910199	2	1	NaN	4325182.6425973	NaN	4325183.6260175	4325184.14258243
47	20	1	0	90	36.1581920903955	36.241610738255	22	0.733379151597619	2	3	2	NaN	1	3	0.080651200461123	1	1	NaN	356	6	41	2	121	221	321	NaN	521	0.0646232198923826	2	0	NaN	4325184.9595263	NaN	4325185.9429821	4325186.45947958
47	20	1	0	90	36.1581920903955	36.241610738255	20	0.666708319634199	2	10	1	NaN	2	3	0.080651200461123	1	1	NaN	357	6	42	2	121	221	321	NaN	521	0.104954620823264	2	1	NaN	4325187.3430868	NaN	4325188.3264832	4325188.84304798
47	20	1	0	90	36.1581920903955	36.241610738255	8	0.26668332785368	2	12	4	NaN	2	5	0.080651200461123	1	1	NaN	358	6	43	2	121	221	321	NaN	521	0.0103775737807155	2	1	NaN	4325189.7600099	NaN	4325190.7433989	4325191.25995103
47	20	1	0	90	36.1581920903955	36.241610738255	24	0.800049983561039	2	11	2	NaN	2	5	0.080651200461123	1	1	NaN	359	6	44	2	121	221	321	NaN	521	0.0104105686768889	2	1	NaN	4325192.0935606	NaN	4325193.0769598	4325193.59350453
47	20	1	0	90	36.1581920903955	36.241610738255	12	0.400024991780519	2	2	2	NaN	1	5	0.080651200461123	1	1	NaN	360	6	45	2	121	221	321	NaN	521	0.0104079684242606	1	1	NaN	4325194.4271148	NaN	4325195.4105242	4325195.92707033
47	20	1	0	90	36.1581920903955	36.241610738255	11	0.36668957579881	2	4	2	NaN	1	3	0.080651200461123	1	1	NaN	361	6	46	2	121	221	321	NaN	521	0.0104096690192819	2	0	NaN	4325196.7606739	NaN	4325197.7440868	4325198.26063823
47	20	1	0	90	36.1581920903955	36.241610738255	25	0.833385399542749	2	4	1	NaN	1	4	0.080651200461123	1	1	NaN	362	6	47	2	121	221	321	NaN	521	0.0104184681549668	2	0	NaN	4325199.0942453	NaN	4325200.0776529	4325200.59419343
47	20	1	0	90	36.1581920903955	36.241610738255	17	0.566702071689069	2	10	6	NaN	2	3	0.080651200461123	1	1	NaN	363	6	48	2	121	221	321	NaN	521	0.010396420955658	1	0	NaN	4325201.4111399	NaN	4325202.3945351	4325202.91109568
47	20	1	0	90	36.1581920903955	36.241610738255	13	0.433360407762229	2	7	4	NaN	2	3	0.080651200461123	1	1	NaN	364	6	49	2	121	221	321	NaN	521	0.010425915941596	2	1	NaN	4325203.7280342	NaN	4325204.7114238	4325205.22797908
47	20	1	0	90	36.1581920903955	36.241610738255	25	0.833385399542749	2	1	1	NaN	1	5	0.080651200461123	1	1	NaN	365	6	50	2	121	221	321	NaN	521	0.0104214157909155	2	0	NaN	4325206.0448023	NaN	4325207.0283245	4325207.54486968
47	20	1	0	90	36.1581920903955	36.241610738255	10	0.3333541598171	2	2	1	NaN	1	4	0.080651200461123	1	1	NaN	366	6	51	2	121	221	321	NaN	521	0.010440363548696	1	1	NaN	4325208.5618089	NaN	4325209.5452393	4325210.06178374
47	20	1	0	90	36.1581920903955	36.241610738255	0	0	1	11	1	NaN	2	5	0.080651200461123	1	1	NaN	367	6	52	2	111	211	311	NaN	511	0.0650491211563349	2	1	NaN	4325210.8787347	NaN	4325211.8621378	4325212.37868468
47	20	1	0	90	36.1581920903955	36.241610738255	21	0.700043735615909	2	1	6	NaN	1	3	0.080651200461123	1	1	NaN	368	6	53	2	121	221	321	NaN	521	0.0578297358006239	1	1	NaN	4325213.262208	NaN	4325214.2457045	4325214.76224876
47	20	1	0	90	36.1581920903955	36.241610738255	7	0.23334791187197	2	3	4	NaN	1	5	0.080651200461123	1	1	NaN	369	6	54	2	121	221	321	NaN	521	0.0589604210108519	1	1	NaN	4325215.6290792	NaN	4325216.6125977	4325217.12915588
47	20	1	0	90	36.1581920903955	36.241610738255	0	0	1	6	1	NaN	1	5	0.080651200461123	1	1	NaN	370	6	55	2	111	211	311	NaN	511	0.291952121071517	2	0	NaN	4325217.9960965	NaN	4325218.9795227	4325219.49605388
47	20	1	0	90	36.1581920903955	36.241610738255	13	0.433360407762229	2	6	5	NaN	1	3	0.080651200461123	1	1	NaN	371	6	56	2	121	221	321	NaN	521	0.0596465207636356	1	1	NaN	4325220.596235	NaN	4325221.5797852	4325222.09631038
47	20	1	0	90	36.1581920903955	36.241610738255	9	0.30001874383539	2	10	5	NaN	2	5	0.080651200461123	1	1	NaN	372	6	57	2	121	221	321	NaN	521	0.068147269077599	2	1	NaN	4325222.9797924	NaN	4325223.9633223	4325224.47986293
47	20	1	0	90	36.1581920903955	36.241610738255	19	0.633372903652489	2	4	1	NaN	1	3	0.080651200461123	1	1	NaN	373	6	58	2	121	221	321	NaN	521	0.0326150683686137	1	1	NaN	4325225.4634901	NaN	4325226.4468977	4325226.96345193
47	20	1	0	90	36.1581920903955	36.241610738255	10	0.3333541598171	2	12	1	NaN	2	5	0.080651200461123	1	1	NaN	374	6	59	2	121	221	321	NaN	521	0.0904376683756709	2	1	NaN	4325227.8137291	NaN	4325228.7971341	4325229.31367593
47	20	1	0	90	36.1581920903955	36.241610738255	18	0.600037487670779	2	2	6	NaN	1	5	0.080651200461123	1	1	NaN	375	6	60	2	121	221	321	NaN	521	0.0663274200633168	1	1	NaN	4325230.2139516	NaN	4325231.1973611	4325231.71391648
47	20	1	0	90	36.1581920903955	36.241610738255	18	0.600037487670779	2	5	2	NaN	1	5	0.080651200461123	1	1	NaN	376	6	61	2	121	221	321	NaN	521	0.122518121264875	1	1	NaN	4325232.5975958	NaN	4325233.58093	4325234.09747768
47	20	1	0	90	36.1581920903955	36.241610738255	9	0.30001874383539	2	12	1	NaN	2	3	0.080651200461123	1	1	NaN	377	6	62	2	121	221	321	NaN	521	0.545139968395233	2	1	NaN	4325235.0311027	NaN	4325236.0144834	4325236.53104863
47	20	1	0	90	36.1581920903955	36.241610738255	19	0.633372903652489	2	3	2	NaN	1	5	0.080651200461123	1	1	NaN	378	6	63	2	121	221	321	NaN	521	0.0103929210454226	1	1	NaN	4325237.8980507	NaN	4325238.8814702	4325239.39799928
47	20	1	0	90	36.1581920903955	36.241610738255	10	0.3333541598171	2	8	4	NaN	2	3	0.080651200461123	1	1	NaN	379	7	1	2	121	221	321	NaN	521	0.0341376205906272	2	1	NaN	4325277.5019256	NaN	4325278.485326	4325279.00188568
47	20	1	0	90	36.1581920903955	36.241610738255	23	0.766714567579329	2	12	1	NaN	2	4	0.080651200461123	1	1	NaN	380	7	2	2	121	221	321	NaN	521	0.010409721173346	2	1	NaN	4325279.8521927	NaN	4325280.8355581	4325281.35211848
47	20	1	0	90	36.1581920903955	36.241610738255	17	0.566702071689069	2	7	5	NaN	2	3	0.080651200461123	1	1	NaN	381	7	3	2	121	221	321	NaN	521	0.010411468334496	2	1	NaN	4325282.1691027	NaN	4325283.1524566	4325283.66900873
47	20	1	0	90	36.1581920903955	36.241610738255	11	0.36668957579881	2	5	1	NaN	1	5	0.080651200461123	1	1	NaN	382	7	4	2	121	221	321	NaN	521	0.0104082683101296	1	1	NaN	4325284.485831	NaN	4325285.4693454	4325285.98589403
47	20	1	0	90	36.1581920903955	36.241610738255	0	0	1	10	4	NaN	2	5	0.080651200461123	1	1	NaN	383	7	5	2	111	211	311	NaN	511	0.0103171849623322	2	1	NaN	4325286.9028375	NaN	4325287.8861705	4325288.40281362
47	20	1	0	90	36.1581920903955	36.241610738255	10	0.3333541598171	2	2	3	NaN	1	5	0.080651200461123	1	1	NaN	384	7	6	2	121	221	321	NaN	521	0.0203387206420302	1	1	NaN	4325289.219743	NaN	4325290.2031438	4325290.71970248
47	20	1	0	90	36.1581920903955	36.241610738255	20	0.666708319634199	2	1	1	NaN	1	4	0.080651200461123	1	1	NaN	385	7	7	2	121	221	321	NaN	521	0.0547817163169384	1	1	NaN	4325291.5533426	NaN	4325292.5367061	4325293.05325398
47	20	1	0	90	36.1581920903955	36.241610738255	24	0.800049983561039	2	2	2	NaN	1	3	0.080651200461123	1	1	NaN	386	7	8	2	121	221	321	NaN	521	0.0400487687438726	1	1	NaN	4325293.920083	NaN	4325294.9035002	4325295.42016363
47	20	1	0	90	36.1581920903955	36.241610738255	0	0	1	10	2	NaN	2	4	0.080651200461123	1	1	NaN	387	7	9	2	111	211	311	NaN	511	0.0104094678536057	2	1	NaN	4325296.270444	NaN	4325297.2538428	4325297.77038633
47	20	1	0	90	36.1581920903955	36.241610738255	14	0.466695823743939	2	10	5	NaN	2	5	0.080651200461123	1	1	NaN	388	7	10	2	121	221	321	NaN	521	0.0609469683840871	2	1	NaN	4325298.5873517	NaN	4325299.570737	4325300.08727563
47	20	1	0	90	36.1581920903955	36.241610738255	13	0.433360407762229	2	10	5	NaN	2	4	0.080651200461123	1	1	NaN	389	7	11	2	121	221	321	NaN	521	0.0213250694796443	1	0	NaN	4325300.9708912	NaN	4325301.9542951	4325302.47084573
47	20	1	0	90	36.1581920903955	36.241610738255	18	0.600037487670779	2	3	6	NaN	1	3	0.080651200461123	1	1	NaN	390	7	12	2	121	221	321	NaN	521	0.103695221245289	1	1	NaN	4325303.304446	NaN	4325304.2878591	4325304.80441688
47	20	1	0	90	36.1581920903955	36.241610738255	14	0.466695823743939	2	10	2	NaN	2	5	0.080651200461123	1	1	NaN	391	7	13	2	121	221	321	NaN	521	0.0864945203065872	2	1	NaN	4325305.7213132	NaN	4325306.7047627	4325307.22132198
47	20	1	0	90	36.1581920903955	36.241610738255	19	0.633372903652489	2	5	1	NaN	1	3	0.080651200461123	1	1	NaN	392	7	14	2	121	221	321	NaN	521	0.0625449791550636	1	1	NaN	4325308.121598	NaN	4325309.1050144	4325309.62155632
47	20	1	0	90	36.1581920903955	36.241610738255	24	0.800049983561039	2	7	6	NaN	2	5	0.080651200461123	1	1	NaN	393	7	15	2	121	221	321	NaN	521	0.0386886205524206	2	1	NaN	4325310.5050427	NaN	4325311.4885645	4325312.00511678
47	20	1	0	90	36.1581920903955	36.241610738255	16	0.533366655707359	2	11	4	NaN	2	5	0.080651200461123	1	1	NaN	394	7	16	2	121	221	321	NaN	521	0.144654569216073	2	1	NaN	4325312.8553953	NaN	4325313.8388091	4325314.35534533
47	20	1	0	90	36.1581920903955	36.241610738255	7	0.23334791187197	2	12	1	NaN	2	5	0.080651200461123	1	1	NaN	395	7	17	2	121	221	321	NaN	521	0.0858759209513664	2	1	NaN	4325315.3223109	NaN	4325316.3057589	4325316.82226168
47	20	1	0	90	36.1581920903955	36.241610738255	7	0.23334791187197	2	4	3	NaN	1	4	0.080651200461123	1	1	NaN	396	7	18	2	121	221	321	NaN	521	0.0102956891059875	1	1	NaN	4325317.72264	NaN	4325318.705942	4325319.22248971
47	20	1	0	90	36.1581920903955	36.241610738255	13	0.433360407762229	2	3	6	NaN	1	4	0.080651200461123	1	1	NaN	397	7	19	2	121	221	321	NaN	521	0.0194841204211116	1	1	NaN	4325320.3726911	NaN	4325321.3562001	4325321.87275888
47	20	1	0	90	36.1581920903955	36.241610738255	18	0.600037487670779	2	5	1	NaN	1	5	0.080651200461123	1	1	NaN	398	7	20	2	121	221	321	NaN	521	0.0115356417372823	1	1	NaN	4325322.7564065	NaN	4325323.7397636	4325324.25631876
47	20	1	0	90	36.1581920903955	36.241610738255	25	0.833385399542749	2	2	2	NaN	1	4	0.080651200461123	1	1	NaN	399	7	21	2	121	221	321	NaN	521	0.0104229683056474	1	1	NaN	4325325.0899244	NaN	4325326.0732601	4325326.58988133
47	20	1	0	90	36.1581920903955	36.241610738255	13	0.433360407762229	2	2	6	NaN	1	3	0.080651200461123	1	1	NaN	400	7	22	2	121	221	321	NaN	521	0.113296320661902	1	1	NaN	4325327.4068362	NaN	4325328.390235	4325328.90678008
47	20	1	0	90	36.1581920903955	36.241610738255	8	0.26668332785368	2	4	5	NaN	1	5	0.080651200461123	1	1	NaN	401	7	23	2	121	221	321	NaN	521	0.0156673155725002	1	1	NaN	4325329.8403989	NaN	4325330.8237696	4325331.34034048
47	20	1	0	90	36.1581920903955	36.241610738255	12	0.400024991780519	2	5	6	NaN	1	3	0.080651200461123	1	1	NaN	402	7	24	2	121	221	321	NaN	521	0.0263173691928387	1	1	NaN	4325332.1739625	NaN	4325333.1574026	4325333.67390793
47	20	1	0	90	36.1581920903955	36.241610738255	10	0.3333541598171	2	11	2	NaN	2	4	0.080651200461123	1	1	NaN	403	7	25	2	121	221	321	NaN	521	0.0104090208187699	2	1	NaN	4325334.5075166	NaN	4325335.4909227	4325336.00747598
47	20	1	0	90	36.1581920903955	36.241610738255	10	0.3333541598171	2	3	2	NaN	1	5	0.080651200461123	1	1	NaN	404	7	26	2	121	221	321	NaN	521	0.111173531040549	1	1	NaN	4325337.2411043	NaN	4325338.2245175	4325338.74107147
47	20	1	0	90	36.1581920903955	36.241610738255	24	0.800049983561039	2	10	6	NaN	2	3	0.080651200461123	1	1	NaN	405	7	27	2	121	221	321	NaN	521	0.0103831738233566	2	1	NaN	4325339.6747045	NaN	4325340.6580944	4325341.17464653
47	20	1	0	90	36.1581920903955	36.241610738255	12	0.400024991780519	2	3	2	NaN	1	5	0.080651200461123	1	1	NaN	406	7	28	2	121	221	321	NaN	521	0.0103893205523491	1	1	NaN	4325341.991567	NaN	4325342.9749989	4325343.49154248
47	20	1	0	90	36.1581920903955	36.241610738255	11	0.36668957579881	2	7	6	NaN	2	3	0.080651200461123	1	1	NaN	407	7	29	2	121	221	321	NaN	521	0.523462163284421	2	1	NaN	4325344.3084831	NaN	4325345.2918852	4325345.80842324
47	20	1	0	90	36.1581920903955	36.241610738255	24	0.800049983561039	2	6	5	NaN	1	5	0.080651200461123	1	1	NaN	408	7	30	2	121	221	321	NaN	521	0.0103922206908464	1	1	NaN	4325347.1420921	NaN	4325348.1254909	4325348.64204428
47	20	1	0	90	36.1581920903955	36.241610738255	24	0.800049983561039	2	12	5	NaN	2	5	0.080651200461123	1	1	NaN	409	7	31	2	121	221	321	NaN	521	0.34867066796869	1	0	NaN	4325349.4756442	NaN	4325350.4590525	4325350.97561053
47	20	1	0	90	36.1581920903955	36.241610738255	0	0	1	2	3	NaN	1	5	0.080651200461123	1	1	NaN	410	7	32	2	111	211	311	NaN	511	0.0104064689949155	2	0	NaN	4325352.1425761	NaN	4325353.1259595	4325353.64252773
47	20	1	0	90	36.1581920903955	36.241610738255	22	0.733379151597619	2	12	5	NaN	2	4	0.080651200461123	1	1	NaN	411	7	33	2	121	221	321	NaN	521	0.356980820186436	2	1	NaN	4325354.459481	NaN	4325355.4428822	4325355.95943338
47	20	1	0	90	36.1581920903955	36.241610738255	23	0.766714567579329	2	6	5	NaN	1	3	0.080651200461123	1	1	NaN	412	7	34	2	121	221	321	NaN	521	0.0495292684063315	1	1	NaN	4325357.1264082	NaN	4325358.1098019	4325358.62636283
47	20	1	0	90	36.1581920903955	36.241610738255	0	0	1	2	6	NaN	1	5	0.080651200461123	1	1	NaN	413	7	35	2	111	211	311	NaN	511	0.059052768163383	1	1	NaN	4325359.49331	NaN	4325360.4767082	4325360.99325043
47	20	1	0	90	36.1581920903955	36.241610738255	23	0.766714567579329	2	2	5	NaN	1	5	0.080651200461123	1	1	NaN	414	7	36	2	121	221	321	NaN	521	0.187202568165958	1	1	NaN	4325361.87674	NaN	4325362.8602687	4325363.37682773
47	20	1	0	90	36.1581920903955	36.241610738255	19	0.633372903652489	2	12	2	NaN	2	4	0.080651200461123	1	1	NaN	415	7	37	2	121	221	321	NaN	521	0.118813920766115	2	1	NaN	4325364.3771222	NaN	4325365.360519	4325365.87706988
47	20	1	0	90	36.1581920903955	36.241610738255	11	0.36668957579881	2	4	6	NaN	1	3	0.080651200461123	1	1	NaN	416	7	38	2	121	221	321	NaN	521	0.295150068588555	1	1	NaN	4325366.9772526	NaN	4325367.9607675	4325368.47732173
47	20	1	0	90	36.1581920903955	36.241610738255	11	0.36668957579881	2	7	1	NaN	2	3	0.080651200461123	1	1	NaN	417	7	39	2	121	221	321	NaN	521	0.0507491212338209	2	1	NaN	4325369.6776927	NaN	4325370.6610415	4325371.17759318
47	20	1	0	90	36.1581920903955	36.241610738255	10	0.3333541598171	2	3	6	NaN	1	4	0.080651200461123	1	1	NaN	418	7	40	2	121	221	321	NaN	521	0.0516750207170844	1	1	NaN	4325372.0445604	NaN	4325373.0279278	4325373.54449208
47	20	1	0	90	36.1581920903955	36.241610738255	12	0.400024991780519	2	11	6	NaN	2	4	0.080651200461123	1	1	NaN	419	7	41	2	121	221	321	NaN	521	0.0206951210275292	2	1	NaN	4325374.411435	NaN	4325375.3948341	4325375.91138798
47	20	1	0	90	36.1581920903955	36.241610738255	7	0.23334791187197	2	9	6	NaN	2	4	0.080651200461123	1	1	NaN	420	7	42	2	121	221	321	NaN	521	0.0103906206786633	1	0	NaN	4325376.7450083	NaN	4325377.7284013	4325378.24495338
47	20	1	0	90	36.1581920903955	36.241610738255	8	0.26668332785368	2	8	6	NaN	2	4	0.080651200461123	1	1	NaN	421	7	43	2	121	221	321	NaN	521	0.0103929210454226	1	0	NaN	4325379.078558	NaN	4325380.061961	4325380.57851688
47	20	1	0	90	36.1581920903955	36.241610738255	12	0.400024991780519	2	1	3	NaN	1	4	0.080651200461123	1	1	NaN	422	7	44	2	121	221	321	NaN	521	0.0103915203362703	1	1	NaN	4325381.3954641	NaN	4325382.3788533	4325382.89540788
47	20	1	0	90	36.1581920903955	36.241610738255	0	0	1	8	4	NaN	2	5	0.080651200461123	1	1	NaN	423	7	45	2	111	211	311	NaN	511	0.0102748414501548	2	1	NaN	4325383.7290163	NaN	4325384.7124226	4325385.22896876
47	20	1	0	90	36.1581920903955	36.241610738255	10	0.3333541598171	2	10	2	NaN	2	5	0.080651200461123	1	1	NaN	424	7	46	2	121	221	321	NaN	521	0.0104164686053991	2	1	NaN	4325386.0457606	NaN	4325387.029306	4325387.54585463
47	20	1	0	90	36.1581920903955	36.241610738255	6	0.20001249589026	2	2	6	NaN	1	3	0.080651200461123	1	1	NaN	425	7	47	2	121	221	321	NaN	521	0.0103289894759655	1	1	NaN	4325388.3794804	NaN	4325389.3628682	4325389.87942721
47	20	1	0	90	36.1581920903955	36.241610738255	14	0.466695823743939	2	8	6	NaN	2	3	0.080651200461123	1	1	NaN	426	7	48	2	121	221	321	NaN	521	0.0398789690807462	2	1	NaN	4325390.6963794	NaN	4325391.6797596	4325392.19630713
47	20	1	0	90	36.1581920903955	36.241610738255	0	0	1	7	6	NaN	2	4	0.080651200461123	1	1	NaN	427	7	49	2	111	211	311	NaN	511	0.0311152162030339	2	1	NaN	4325393.3133154	NaN	4325394.2966907	4325394.81322928
47	20	1	0	90	36.1581920903955	36.241610738255	8	0.26668332785368	2	12	6	NaN	2	4	0.080651200461123	1	1	NaN	428	7	50	2	121	221	321	NaN	521	0.0104040205478668	2	1	NaN	4325395.663515	NaN	4325396.6469239	4325397.16347428
47	20	1	0	90	36.1581920903955	36.241610738255	7	0.23334791187197	2	6	3	NaN	1	4	0.080651200461123	1	1	NaN	429	7	51	2	121	221	321	NaN	521	0.0104002207517624	1	1	NaN	4325397.9970784	NaN	4325398.9804845	4325399.49703198
47	20	1	0	90	36.1581920903955	36.241610738255	20	0.666708319634199	2	4	5	NaN	1	3	0.080651200461123	1	1	NaN	430	7	52	2	121	221	321	NaN	521	0.0496723894029856	1	1	NaN	4325400.6305516	NaN	4325401.6140883	4325402.13062301
47	20	1	0	90	36.1581920903955	36.241610738255	19	0.633372903652489	2	4	6	NaN	1	5	0.080651200461123	1	1	NaN	431	7	53	2	121	221	321	NaN	521	0.0587428687140346	1	1	NaN	4325402.9974392	NaN	4325403.9809762	4325404.49751353
47	20	1	0	90	36.1581920903955	36.241610738255	8	0.26668332785368	2	1	5	NaN	1	5	0.080651200461123	1	1	NaN	432	7	54	2	121	221	321	NaN	521	0.0679225157946348	1	1	NaN	4325405.3643395	NaN	4325406.3478638	4325406.86441678
47	20	1	0	90	36.1581920903955	36.241610738255	0	0	1	9	2	NaN	2	5	0.080651200461123	1	1	NaN	433	7	55	2	111	211	311	NaN	511	0.010406568646431	1	0	NaN	4325407.7480366	NaN	4325408.7314494	4325409.24798453
47	20	1	0	90	36.1581920903955	36.241610738255	24	0.800049983561039	2	3	5	NaN	1	3	0.080651200461123	1	1	NaN	434	7	56	2	121	221	321	NaN	521	0.0154051212593913	2	0	NaN	4325410.0648484	NaN	4325411.0483634	4325411.56488698
47	20	1	0	90	36.1581920903955	36.241610738255	6	0.20001249589026	2	2	5	NaN	1	3	0.080651200461123	1	1	NaN	435	7	57	2	121	221	321	NaN	521	0.0104077206924558	1	1	NaN	4325412.3984843	NaN	4325413.3818966	4325413.89844448
47	20	1	0	90	36.1581920903955	36.241610738255	22	0.733379151597619	2	4	3	NaN	1	3	0.080651200461123	1	1	NaN	436	7	58	2	121	221	321	NaN	521	0.0103966211900115	1	1	NaN	4325414.7319389	NaN	4325415.7154512	4325416.23200648
47	20	1	0	90	36.1581920903955	36.241610738255	19	0.633372903652489	2	10	6	NaN	2	4	0.080651200461123	1	1	NaN	437	7	59	2	121	221	321	NaN	521	0.0143858203664422	2	1	NaN	4325417.0656386	NaN	4325418.0490121	4325418.56557208
47	20	1	0	90	36.1581920903955	36.241610738255	24	0.800049983561039	2	8	1	NaN	2	4	0.080651200461123	1	1	NaN	438	7	60	2	121	221	321	NaN	521	0.0104057686403394	2	1	NaN	4325419.3990738	NaN	4325420.3825748	4325420.89913093
47	20	1	0	90	36.1581920903955	36.241610738255	17	0.566702071689069	2	12	6	NaN	2	4	0.080651200461123	1	1	NaN	439	7	61	2	121	221	321	NaN	521	0.010427569039166	2	1	NaN	4325421.7160703	NaN	4325422.6994736	4325423.21601543
47	20	1	0	90	36.1581920903955	36.241610738255	18	0.600037487670779	2	10	6	NaN	2	3	0.080651200461123	1	1	NaN	440	7	62	2	121	221	321	NaN	521	0.0103923212736845	2	1	NaN	4325424.0329857	NaN	4325425.0163672	4325425.53291968
47	20	1	0	90	36.1581920903955	36.241610738255	20	0.666708319634199	2	8	4	NaN	2	3	0.080651200461123	1	1	NaN	441	7	63	2	121	221	321	NaN	521	0.0103965206071734	2	1	NaN	4325426.3497641	NaN	4325427.3332964	4325427.84980888
47	20	1	0	90	36.1581920903955	36.241610738255	15	0.500031239725649	2	10	1	NaN	2	5	0.080651200461123	1	1	NaN	442	8	1	2	121	221	321	NaN	521	0.110937220975757	2	1	NaN	4325476.1213877	NaN	4325477.104806	4325477.62136088
47	20	1	0	90	36.1581920903955	36.241610738255	15	0.500031239725649	2	3	1	NaN	1	3	0.080651200461123	1	1	NaN	443	8	2	2	121	221	321	NaN	521	0.0887556150555611	2	0	NaN	4325478.8716544	NaN	4325479.8550864	4325480.37162178
47	20	1	0	90	36.1581920903955	36.241610738255	17	0.566702071689069	2	9	5	NaN	2	3	0.080651200461123	1	1	NaN	444	8	3	2	121	221	321	NaN	521	0.0104097677394748	1	0	NaN	4325481.3219139	NaN	4325482.3053226	4325482.82185933
47	20	1	0	90	36.1581920903955	36.241610738255	17	0.566702071689069	2	1	1	NaN	1	5	0.080651200461123	1	1	NaN	445	8	4	2	121	221	321	NaN	521	0.073584821075201	1	1	NaN	4325483.6387816	NaN	4325484.6222139	4325485.13876498
47	20	1	0	90	36.1581920903955	36.241610738255	16	0.533366655707359	2	7	6	NaN	2	4	0.080651200461123	1	1	NaN	446	8	5	2	121	221	321	NaN	521	0.0104118688032031	2	1	NaN	4325486.0223707	NaN	4325487.0057764	4325487.52232513
47	20	1	0	90	36.1581920903955	36.241610738255	15	0.500031239725649	2	8	2	NaN	2	3	0.080651200461123	1	1	NaN	447	8	6	2	121	221	321	NaN	521	0.0372715685516596	1	0	NaN	4325488.3392688	NaN	4325489.3226739	4325489.83922373
47	20	1	0	90	36.1581920903955	36.241610738255	8	0.26668332785368	2	6	5	NaN	1	4	0.080651200461123	1	1	NaN	448	8	7	2	121	221	321	NaN	521	0.0104026198387146	1	1	NaN	4325490.6893795	NaN	4325491.672885	4325492.18945378
47	20	1	0	90	36.1581920903955	36.241610738255	10	0.3333541598171	2	4	5	NaN	1	4	0.080651200461123	1	1	NaN	449	8	8	2	121	221	321	NaN	521	0.0104088680818677	1	1	NaN	4325493.0230584	NaN	4325494.0065061	4325494.52301683
47	20	1	0	90	36.1581920903955	36.241610738255	7	0.23334791187197	2	8	3	NaN	2	3	0.080651200461123	1	1	NaN	450	8	9	2	121	221	321	NaN	521	0.0104099689051509	2	1	NaN	4325495.3399673	NaN	4325496.3233629	4325496.83990733
47	20	1	0	90	36.1581920903955	36.241610738255	7	0.23334791187197	2	7	4	NaN	2	5	0.080651200461123	1	1	NaN	451	8	10	2	121	221	321	NaN	521	0.0635181209072471	2	1	NaN	4325497.6567187	NaN	4325498.6402471	4325499.15680728
47	20	1	0	90	36.1581920903955	36.241610738255	15	0.500031239725649	2	4	2	NaN	1	3	0.080651200461123	1	1	NaN	452	8	11	2	121	221	321	NaN	521	0.0160965202376246	1	1	NaN	4325500.0402838	NaN	4325501.0238163	4325501.54037358
47	20	1	0	90	36.1581920903955	36.241610738255	8	0.26668332785368	2	7	4	NaN	2	4	0.080651200461123	1	1	NaN	453	8	12	2	121	221	321	NaN	521	0.0103900209069252	2	1	NaN	4325502.6407047	NaN	4325503.6240992	4325504.14062858
47	20	1	0	90	36.1581920903955	36.241610738255	15	0.500031239725649	2	12	3	NaN	2	4	0.080651200461123	1	1	NaN	454	8	13	2	121	221	321	NaN	521	0.0104165207594633	2	1	NaN	4325504.9576572	NaN	4325505.9409685	4325506.45752268
47	20	1	0	90	36.1581920903955	36.241610738255	18	0.600037487670779	2	11	3	NaN	2	4	0.080651200461123	1	1	NaN	455	8	14	2	121	221	321	NaN	521	0.0220404155552387	2	1	NaN	4325507.2744635	NaN	4325508.2578432	4325508.77440358
47	20	1	0	90	36.1581920903955	36.241610738255	6	0.20001249589026	2	10	4	NaN	2	3	0.080651200461123	1	1	NaN	456	8	15	2	121	221	321	NaN	521	0.0104123689234257	2	1	NaN	4325509.6080096	NaN	4325510.5914243	4325511.10796813
47	20	1	0	90	36.1581920903955	36.241610738255	6	0.20001249589026	2	12	6	NaN	2	4	0.080651200461123	1	1	NaN	457	8	16	2	121	221	321	NaN	521	0.0104237152263522	2	1	NaN	4325511.9415815	NaN	4325512.9250175	4325513.44153228
47	20	1	0	90	36.1581920903955	36.241610738255	21	0.700043735615909	2	2	4	NaN	1	3	0.080651200461123	1	1	NaN	458	8	17	2	121	221	321	NaN	521	0.0104122683405876	1	1	NaN	4325514.2584818	NaN	4325515.2418691	4325515.75843293
47	20	1	0	90	36.1581920903955	36.241610738255	15	0.500031239725649	2	11	2	NaN	2	5	0.080651200461123	1	1	NaN	459	8	18	2	121	221	321	NaN	521	0.0564596690237522	2	1	NaN	4325516.5920274	NaN	4325517.5754334	4325518.09198363
