subjno	age	gender	isPractice	viewdist	CmToPixX	CmToPixY	SOA_frm	SOA_time	targNum	targID	targExample	targRace	targGender	firstTargPos	contrast	familiarity	curr_staircase	iStair	TrialNum	BlockNum	blktrl	sessionNum	TC_FIXATION	TC_RSVP_START	TC_RSVP_END	TC_BLANK	TC_RESPONSE_ONSET	RT2afc	resp_2afc	acc	RSVPOnsetVBL	RSVPOnsetTime	RSVPOffsetVBL	RSVPOffsetTime	startrt_2afc
76	99	99	1	90	36.1581920903955	36.241610738255	0	0	1	5	1	NaN	1	4	0.0630957344480193	1	1	1	1	1	1	1	111	211	311	NaN	511	6.01129247946665	1	1	NaN	3355006.2920136	NaN	3355007.275244	3355007.80833172
76	99	99	1	90	36.1581920903955	36.241610738255	0	0	1	9	1	NaN	2	4	0.398107170553497	1	1	2	2	1	2	1	111	211	311	NaN	511	3.32603342784569	2	1	NaN	3355014.7927707	NaN	3355015.7760884	3355016.30917297
76	99	99	1	90	36.1581920903955	36.241610738255	0	0	1	8	1	NaN	2	4	0.0158489319246111	1	1	3	3	1	3	1	111	211	311	NaN	511	9.86302547948435	1	0	NaN	3355020.5597979	NaN	3355021.5431878	3355022.07641202
76	99	99	1	90	36.1581920903955	36.241610738255	0	0	1	8	1	NaN	2	5	0.158489319246111	1	1	4	4	1	4	1	111	211	311	NaN	511	0.738291627727449	2	1	NaN	3355032.8610067	NaN	3355033.8444	3355034.36095797
76	99	99	1	90	36.1581920903955	36.241610738255	0	0	1	12	1	NaN	2	5	0.1	1	1	5	5	1	5	1	111	211	311	NaN	511	0.347336727660149	2	1	NaN	3355036.0279902	NaN	3355037.0113811	3355037.52793397
76	99	99	1	90	36.1581920903955	36.241610738255	0	0	1	6	1	NaN	1	3	0.0398107170553497	1	1	6	6	1	6	1	111	211	311	NaN	511	2.43593542370945	1	1	NaN	3355038.8115993	NaN	3355039.7950037	3355040.31153718
76	99	99	1	90	36.1581920903955	36.241610738255	0	0	1	7	1	NaN	2	4	0.251188643150958	1	1	7	7	1	7	1	111	211	311	NaN	511	1.15309037920088	2	1	NaN	3355043.6620717	NaN	3355044.6454712	3355045.16201532
76	99	99	1	90	36.1581920903955	36.241610738255	0	0	1	11	1	NaN	2	4	0.0251188643150958	1	1	8	8	1	8	1	111	211	311	NaN	511	1.3860421795398	2	1	NaN	3355047.2290854	NaN	3355048.2124781	3355048.72903352
76	99	99	1	90	36.1581920903955	36.241610738255	0	0	1	11	1	NaN	2	5	0.630957344480193	1	1	9	9	1	9	1	111	211	311	NaN	511	0.705811875406653	2	1	NaN	3355051.0294544	NaN	3355052.0128621	3355052.52939872
76	99	99	1	90	36.1581920903955	36.241610738255	0	0	1	2	1	NaN	1	5	0.0251188643150958	1	1	10	10	1	10	1	111	211	311	NaN	511	1.69989027548581	2	0	NaN	3355054.1631077	NaN	3355055.1465169	3355055.66304822
76	99	99	1	90	36.1581920903955	36.241610738255	0	0	1	12	1	NaN	2	4	0.0630957344480193	1	1	11	11	1	11	1	111	211	311	NaN	511	0.535320200026035	1	0	NaN	3355058.2801803	NaN	3355059.2636091	3355059.7801148
76	99	99	1	90	36.1581920903955	36.241610738255	0	0	1	5	1	NaN	1	3	0.0158489319246111	1	1	12	12	1	12	1	111	211	311	NaN	511	2.10047307098284	2	0	NaN	3355061.5471967	NaN	3355062.5305639	3355063.04709753
76	99	99	1	90	36.1581920903955	36.241610738255	0	0	1	6	1	NaN	1	3	0.0398107170553497	1	1	13	13	1	13	1	111	211	311	NaN	511	0.270995375700295	2	0	NaN	3355066.0643371	NaN	3355067.0476939	3355067.56421422
76	99	99	1	90	36.1581920903955	36.241610738255	0	0	1	3	1	NaN	1	4	0.398107170553497	1	1	14	14	1	14	1	111	211	311	NaN	511	1.47375117568299	2	0	NaN	3355069.1978956	NaN	3355070.1813391	3355070.69785642
76	99	99	1	90	36.1581920903955	36.241610738255	0	0	1	2	1	NaN	1	4	0.1	1	1	15	15	1	15	1	111	211	311	NaN	511	0.653140431735665	1	1	NaN	3355073.0983056	NaN	3355074.0817019	3355074.59825067
76	99	99	1	90	36.1581920903955	36.241610738255	0	0	1	6	1	NaN	1	3	0.251188643150958	1	1	16	16	1	16	1	111	211	311	NaN	511	0.121725175529718	1	1	NaN	3355076.1819439	NaN	3355077.1653498	3355077.68187342
76	99	99	1	90	36.1581920903955	36.241610738255	0	0	1	9	1	NaN	2	4	0.158489319246111	1	1	17	17	1	17	1	111	211	311	NaN	511	0.515134979039431	2	1	NaN	3355078.7321975	NaN	3355079.715549	3355080.23212322
76	99	99	1	90	36.1581920903955	36.241610738255	0	0	1	12	1	NaN	2	5	0.1	1	1	18	18	1	18	1	111	211	311	NaN	511	1.58986139204353	1	0	NaN	3355081.6658083	NaN	3355082.649251	3355083.16576191
76	99	99	1	90	36.1581920903955	36.241610738255	0	0	1	4	1	NaN	1	5	0.269286774267099	1	1	19	19	1	19	1	111	211	311	NaN	511	0.0104792756028473	1	1	NaN	3355085.9494341	NaN	3355086.9329831	3355087.44951092
76	99	99	1	90	36.1581920903955	36.241610738255	0	0	1	6	1	NaN	1	5	0.229776349607601	1	1	20	20	1	20	1	111	211	311	NaN	511	0.432413027621806	1	1	NaN	3355088.3831551	NaN	3355089.3665445	3355089.88308347
76	99	99	1	90	36.1581920903955	36.241610738255	0	0	1	11	1	NaN	2	5	0.194062575459354	1	1	21	21	1	21	1	111	211	311	NaN	511	0.525796079542488	2	1	NaN	3355091.2334116	NaN	3355092.2168249	3355092.73336142
76	99	99	1	90	36.1581920903955	36.241610738255	0	0	1	2	1	NaN	1	5	0.162578452890029	1	1	22	22	1	22	1	111	211	311	NaN	511	0.455625423230231	1	1	NaN	3355094.1837027	NaN	3355095.1671133	3355095.68365318
76	99	99	1	90	36.1581920903955	36.241610738255	0	0	1	1	1	NaN	1	5	0.135705417003558	1	1	23	23	1	23	1	111	211	311	NaN	511	0.475782339461148	1	1	NaN	3355097.0673316	NaN	3355098.0507849	3355098.56726876
76	99	99	1	90	36.1581920903955	36.241610738255	0	0	1	9	1	NaN	2	5	0.113659222461663	1	1	24	24	1	24	1	111	211	311	NaN	511	0.51200953964144	2	1	NaN	3355099.9675993	NaN	3355100.9510167	3355101.46755226
76	99	99	1	90	36.1581920903955	36.241610738255	0	0	1	8	1	NaN	2	5	0.096263442530199	1	1	25	25	1	25	1	111	211	311	NaN	511	0.370048539713025	2	1	NaN	3355102.9012363	NaN	3355103.8846249	3355104.40117986
76	99	99	1	90	36.1581920903955	36.241610738255	0	0	1	10	1	NaN	2	5	0.0829027730841643	1	1	26	26	1	26	1	111	211	311	NaN	511	1.13751218374819	2	1	NaN	3355105.7013876	NaN	3355106.6849127	3355107.20144342
76	99	99	1	90	36.1581920903955	36.241610738255	0	0	1	12	1	NaN	2	5	0.0727350853671681	1	1	27	27	1	27	1	111	211	311	NaN	511	0.378821644000709	2	1	NaN	3355109.2685276	NaN	3355110.2519472	3355110.76846756
76	99	99	1	90	36.1581920903955	36.241610738255	0	0	1	1	1	NaN	1	3	0.0649460925956045	1	1	28	28	1	28	1	111	211	311	NaN	511	0.354830575641245	1	1	NaN	3355112.0686365	NaN	3355113.0521988	3355113.56873832
76	99	99	1	90	36.1581920903955	36.241610738255	0	0	1	3	1	NaN	1	5	0.0588792494701055	1	1	29	29	1	29	1	111	211	311	NaN	511	0.331226623617113	1	1	NaN	3355114.8523859	NaN	3355115.8358335	3355116.35234838
76	99	99	1	90	36.1581920903955	36.241610738255	0	0	1	10	1	NaN	2	3	0.0540513090009134	1	1	30	30	1	30	1	111	211	311	NaN	511	0.412562031298876	2	1	NaN	3355117.6026903	NaN	3355118.5860959	3355119.10262527
76	99	99	1	90	36.1581920903955	36.241610738255	0	0	1	2	1	NaN	1	5	0.0501199224834386	1	1	31	31	1	31	1	111	211	311	NaN	511	1.29083893960342	1	1	NaN	3355120.4362799	NaN	3355121.4197426	3355121.93623646
76	99	99	1	90	36.1581920903955	36.241610738255	0	0	1	12	1	NaN	2	4	0.0468446891821785	1	1	32	32	1	32	1	111	211	311	NaN	511	1.08627072768286	2	1	NaN	3355124.1533265	NaN	3355125.1367453	3355125.65325667
76	99	99	1	90	36.1581920903955	36.241610738255	0	0	1	8	1	NaN	2	5	0.0440557117461444	1	1	33	33	1	33	1	111	211	311	NaN	511	0.682069431524724	1	0	NaN	3355127.6536573	NaN	3355128.6370795	3355129.15361467
76	99	99	1	90	36.1581920903955	36.241610738255	0	0	1	9	1	NaN	2	5	0.0484720762997614	1	1	34	34	1	34	1	111	211	311	NaN	511	0.805267075542361	2	1	NaN	3355130.7539538	NaN	3355131.737378	3355132.25391852
76	99	99	1	90	36.1581920903955	36.241610738255	0	0	1	7	1	NaN	2	3	0.0456603992804282	1	1	35	35	1	35	1	111	211	311	NaN	511	1.0276643675752	1	0	NaN	3355133.9876135	NaN	3355134.9710448	3355135.48755333
76	99	99	1	90	36.1581920903955	36.241610738255	0	0	1	5	1	NaN	1	5	0.0500229647343504	1	1	36	36	1	36	1	111	211	311	NaN	511	0.841310075484216	2	0	NaN	3355137.4379595	NaN	3355138.4213595	3355138.93789882
76	99	99	1	90	36.1581920903955	36.241610738255	0	0	1	10	1	NaN	2	3	0.0553356800408944	1	1	37	37	1	37	1	111	211	311	NaN	511	0.950814879033715	2	1	NaN	3355140.7049407	NaN	3355141.6883578	3355142.20489332
76	99	99	1	90	36.1581920903955	36.241610738255	0	0	1	6	1	NaN	1	4	0.0517495014671517	1	1	38	38	1	38	1	111	211	311	NaN	511	0.351560884155333	1	1	NaN	3355144.0719527	NaN	3355145.0553487	3355145.57188602
76	99	99	1	90	36.1581920903955	36.241610738255	0	0	1	3	1	NaN	1	3	0.048784799991114	1	1	39	39	1	39	1	111	211	311	NaN	511	0.352545023430139	1	1	NaN	3355146.8389	NaN	3355147.8222827	3355148.33882658
76	99	99	1	90	36.1581920903955	36.241610738255	0	0	1	10	1	NaN	2	5	0.046289084953077	1	1	40	40	1	40	1	111	211	311	NaN	511	1.27423467580229	2	1	NaN	3355149.5890189	NaN	3355150.57257	3355151.08909132
76	99	99	1	90	36.1581920903955	36.241610738255	0	0	1	4	1	NaN	1	3	0.0441529640439956	1	1	41	41	1	41	1	111	211	311	NaN	511	0.413798927795142	1	1	NaN	3355153.2895649	NaN	3355154.2729288	3355154.78946047
76	99	99	1	90	36.1581920903955	36.241610738255	0	0	1	7	1	NaN	2	5	0.042296712886822	1	1	42	42	1	42	1	111	211	311	NaN	511	0.340590827632695	2	1	NaN	3355156.1231333	NaN	3355157.1065447	3355157.62307797
76	99	99	1	90	36.1581920903955	36.241610738255	0	0	1	4	1	NaN	1	5	0.0406612900598923	1	1	43	43	1	43	1	111	211	311	NaN	511	0.285300591960549	1	1	NaN	3355158.8900674	NaN	3355159.8734651	3355160.39001951
76	99	99	1	90	36.1581920903955	36.241610738255	0	0	1	5	1	NaN	1	4	0.0392022974845968	1	1	44	44	1	44	1	111	211	311	NaN	511	0.417891575489193	1	1	NaN	3355161.5736694	NaN	3355162.5570619	3355163.07360672
76	99	99	1	90	36.1581920903955	36.241610738255	0	0	1	1	1	NaN	1	3	0.0378858754731918	1	1	45	45	1	45	1	111	211	311	NaN	511	0.376472275704145	1	1	NaN	3355164.4072821	NaN	3355165.3906866	3355165.90721552
76	99	99	1	90	36.1581920903955	36.241610738255	0	0	1	11	1	NaN	2	3	0.0366858735075807	1	1	46	46	1	46	1	111	211	311	NaN	511	0.448851775377989	1	0	NaN	3355167.1907622	NaN	3355168.1742837	3355168.69082022
76	99	99	1	90	36.1581920903955	36.241610738255	0	0	1	5	1	NaN	1	3	0.0385213308386173	1	1	47	47	1	47	1	111	211	311	NaN	511	0.358189475722611	2	0	NaN	3355170.0411527	NaN	3355171.0245694	3355171.54110202
76	99	99	1	90	36.1581920903955	36.241610738255	0	0	1	1	1	NaN	1	3	0.0405371979644764	1	1	48	48	1	48	1	111	211	311	NaN	511	0.358763875439763	1	1	NaN	3355172.8247802	NaN	3355173.8081556	3355174.32471682
76	99	99	1	90	36.1581920903955	36.241610738255	0	0	1	11	1	NaN	2	5	0.0391924935727537	1	1	49	49	1	49	1	111	211	311	NaN	511	1.86580223962665	2	1	NaN	3355175.9416296	NaN	3355176.9251568	3355177.44169056
76	99	99	1	90	36.1581920903955	36.241610738255	0	0	1	1	1	NaN	1	4	0.0379775664591777	1	1	50	50	1	50	1	111	211	311	NaN	511	0.326301775407046	1	1	NaN	3355180.2254876	NaN	3355181.2089119	3355181.72543692
76	99	99	1	90	36.1581920903955	36.241610738255	0	0	1	4	1	NaN	1	5	0.0368695463670702	1	1	51	51	1	51	1	111	211	311	NaN	511	1.83243868360296	1	1	NaN	3355182.9591196	NaN	3355183.9425107	3355184.45904082
76	99	99	1	90	36.1581920903955	36.241610738255	0	0	1	7	1	NaN	2	5	0.0358504527179804	1	1	52	52	1	52	1	111	211	311	NaN	511	1.02169517567381	1	0	NaN	3355187.2095164	NaN	3355188.1929251	3355188.70946532
76	99	99	1	90	36.1581920903955	36.241610738255	0	0	1	9	1	NaN	2	4	0.0373998703109377	1	1	53	53	1	53	1	111	211	311	NaN	511	0.387695975601673	2	1	NaN	3355190.6598634	NaN	3355191.6432672	3355192.15979812
76	99	99	1	90	36.1581920903955	36.241610738255	0	0	1	11	1	NaN	2	4	0.0363745472948256	1	1	54	54	1	54	1	111	211	311	NaN	511	0.442581075709313	2	1	NaN	3355193.4767325	NaN	3355194.4601953	3355194.97673872
76	99	99	1	90	36.1581920903955	36.241610738255	0	0	1	12	1	NaN	2	3	0.0354274404068671	1	1	55	55	1	55	1	111	211	311	NaN	511	0.311560727655888	1	0	NaN	3355196.3436404	NaN	3355197.3271636	3355197.84369417
76	99	99	1	90	36.1581920903955	36.241610738255	0	0	1	4	1	NaN	1	4	0.0368650610502865	1	1	56	56	1	56	1	111	211	311	NaN	511	0.330079675652087	1	1	NaN	3355199.0773375	NaN	3355200.0607862	3355200.57730082
76	99	99	1	90	36.1581920903955	36.241610738255	0	0	1	2	1	NaN	1	3	0.0359121804536661	1	1	57	57	1	57	1	111	211	311	NaN	511	0.356802475638688	1	1	NaN	3355201.8109726	NaN	3355202.7943792	3355203.31090232
76	99	99	1	90	36.1581920903955	36.241610738255	0	0	1	8	1	NaN	2	3	0.0350284261857444	1	1	58	58	1	58	1	111	211	311	NaN	511	1.78186907572672	1	0	NaN	3355204.577901	NaN	3355205.5613038	3355206.07783102
76	99	99	1	90	36.1581920903955	36.241610738255	0	0	1	8	1	NaN	2	5	0.0363681990670613	1	1	59	59	1	59	1	111	211	311	NaN	511	1.02134777558967	2	1	NaN	3355208.7783127	NaN	3355209.7617223	3355210.27824192
76	99	99	1	90	36.1581920903955	36.241610738255	0	0	1	10	1	NaN	2	5	0.0354791531690368	1	1	60	60	1	60	1	111	211	311	NaN	511	1.29071687581018	1	0	NaN	3355212.228653	NaN	3355213.21206	3355213.72858012
76	99	99	1	90	36.1581920903955	36.241610738255	0	0	1	3	1	NaN	1	5	0.0368227772997794	1	1	61	61	1	61	1	111	211	311	NaN	511	1.86284218356013	2	0	NaN	3355216.129005	NaN	3355217.1124386	3355217.62898052
76	99	99	1	90	36.1581920903955	36.241610738255	0	0	1	7	1	NaN	2	4	0.0382829506099463	1	1	62	62	1	62	1	111	211	311	NaN	511	0.755399675574154	2	1	NaN	3355220.3961169	NaN	3355221.3795046	3355221.89605152
76	99	99	1	90	36.1581920903955	36.241610738255	0	0	1	5	1	NaN	1	3	0.0373010315509078	1	1	63	63	1	63	1	111	211	311	NaN	511	0.411760727874935	2	0	NaN	3355223.579773	NaN	3355224.5631766	3355225.07971077
76	99	99	1	90	36.1581920903955	36.241610738255	0	0	1	7	1	NaN	2	3	0.0387734464125429	1	1	64	64	1	64	1	111	211	311	NaN	511	0.491106283385307	1	0	NaN	3355226.396697	NaN	3355227.3801087	3355227.89664542
76	99	99	1	90	36.1581920903955	36.241610738255	0	0	1	9	1	NaN	2	5	0.0404031651475295	1	1	65	65	1	65	1	111	211	311	NaN	511	0.79054137552157	2	1	NaN	3355229.2970089	NaN	3355230.2804011	3355230.79692492
76	99	99	1	90	36.1581920903955	36.241610738255	0	0	1	3	1	NaN	1	4	0.0392933664011459	1	1	66	66	1	66	1	111	211	311	NaN	511	0.317518623545766	1	1	NaN	3355232.5139751	NaN	3355233.497376	3355234.01391068
76	99	99	1	90	36.1581920903955	36.241610738255	0	0	1	3	1	NaN	1	4	0.0382853568875337	1	1	67	67	1	67	1	111	211	311	NaN	511	0.336570475716144	1	1	NaN	3355235.2307811	NaN	3355236.2142983	3355236.73084342
76	99	99	1	90	36.1581920903955	36.241610738255	0	0	1	4	1	NaN	1	5	0.0373626340199256	1	1	68	68	1	68	1	111	211	311	NaN	511	0.697841379325837	1	1	NaN	3355237.9978326	NaN	3355238.9812974	3355239.49779482
76	99	99	1	90	36.1581920903955	36.241610738255	0	0	1	2	1	NaN	1	5	0.0365120114550547	1	1	69	69	1	69	1	111	211	311	NaN	511	1.00539044430479	2	0	NaN	3355241.098145	NaN	3355242.0815458	3355242.59809726
76	99	99	1	90	36.1581920903955	36.241610738255	0	0	1	6	1	NaN	1	5	0.0377860281940077	1	1	70	70	1	70	1	111	211	311	NaN	511	0.443399475421757	1	1	NaN	3355244.7483981	NaN	3355245.7319161	3355246.24844432
76	99	99	1	90	36.1581920903955	36.241610738255	0	0	1	1	1	NaN	1	5	0.0369256661122298	1	1	71	71	1	71	1	111	211	311	NaN	511	0.38405062770471	1	1	NaN	3355247.6154856	NaN	3355248.5988872	3355249.11541687
76	99	99	1	90	36.1581920903955	36.241610738255	0	0	1	10	1	NaN	2	3	0.0361291452887331	1	1	72	72	1	72	1	111	211	311	NaN	511	0.984348227735609	1	0	NaN	3355250.3990594	NaN	3355251.3824537	3355251.89901197
