subjno	age	gender	isPractice	viewdist	CmToPixX	CmToPixY	SOA_frm	SOA_time	targNum	targID	targExample	targRace	targGender	firstTargPos	contrast	familiarity	curr_staircase	iStair	TrialNum	BlockNum	blktrl	sessionNum	TC_FIXATION	TC_RSVP_START	TC_RSVP_END	TC_BLANK	TC_RESPONSE_ONSET	RT2afc	resp_2afc	acc	RSVPOnsetVBL	RSVPOnsetTime	RSVPOffsetVBL	RSVPOffsetTime	startrt_2afc
11	19	1	0	90	36.1581920903955	36.241610738255	13	0.433362904023379	2	11	4	NaN	2	5	0.0440279895567065	0	1	NaN	1	1	1	1	120	220	320	NaN	520	2.79511577449739	1	0	NaN	1708543.8101656	NaN	1708544.7935351	1708545.32665793
11	19	1	0	90	36.1581920903955	36.241610738255	18	0.600040944032371	2	10	2	NaN	2	4	0.0440279895567065	0	1	NaN	2	1	2	1	120	220	320	NaN	520	0.883812274551019	2	1	NaN	1708548.9773685	NaN	1708549.9607383	1708550.49383803
11	19	1	0	90	36.1581920903955	36.241610738255	22	0.733383376039565	2	5	5	NaN	1	5	0.0440279895567065	0	1	NaN	3	1	3	1	120	220	320	NaN	520	1.44596686959267	1	1	NaN	1708552.5275943	NaN	1708553.5109688	1708554.02752013
11	19	1	0	90	36.1581920903955	36.241610738255	22	0.733383376039565	2	8	5	NaN	2	5	0.0440279895567065	0	1	NaN	4	1	4	1	120	220	320	NaN	520	0.407458432018757	1	0	NaN	1708556.2946182	NaN	1708557.2780078	1708557.79456197
11	19	1	0	90	36.1581920903955	36.241610738255	19	0.633376552034169	2	12	3	NaN	2	3	0.0440279895567065	0	1	NaN	5	1	5	1	120	220	320	NaN	520	1.61807416961528	2	1	NaN	1708559.0115144	NaN	1708559.994957	1708560.51148443
11	19	1	0	90	36.1581920903955	36.241610738255	16	0.533369728028774	2	9	4	NaN	2	3	0.0440279895567065	0	1	NaN	6	1	6	1	120	220	320	NaN	520	0.412313669687137	1	0	NaN	1708562.9451398	NaN	1708563.9286494	1708564.44520553
11	19	1	0	90	36.1581920903955	36.241610738255	13	0.433362904023379	2	5	3	NaN	1	3	0.0440279895567065	0	1	NaN	7	1	7	1	120	220	320	NaN	520	0.654576416825876	2	0	NaN	1708565.6955284	NaN	1708566.6789337	1708567.19548088
11	19	1	0	90	36.1581920903955	36.241610738255	10	0.333356080017984	2	8	6	NaN	2	4	0.0440279895567065	0	1	NaN	8	1	8	1	120	220	320	NaN	520	1.33540562191047	1	0	NaN	1708569.0625192	NaN	1708570.0459202	1708570.56248298
11	19	1	0	90	36.1581920903955	36.241610738255	24	0.800054592043161	2	6	2	NaN	1	5	0.0440279895567065	0	1	NaN	9	1	9	1	120	220	320	NaN	520	0.532814864302054	1	1	NaN	1708572.7128971	NaN	1708573.6962969	1708574.21283454
11	19	1	0	90	36.1581920903955	36.241610738255	19	0.633376552034169	2	1	4	NaN	1	3	0.0440279895567065	0	1	NaN	10	1	10	1	120	220	320	NaN	520	2.16290176939219	1	1	NaN	1708575.5631738	NaN	1708576.5465701	1708577.06311603
11	19	1	0	90	36.1581920903955	36.241610738255	16	0.533369728028774	2	1	3	NaN	1	4	0.0440279895567065	0	1	NaN	11	1	11	1	120	220	320	NaN	520	0.703283069422469	1	1	NaN	1708580.0469704	NaN	1708581.0302442	1708581.54688823
11	19	1	0	90	36.1581920903955	36.241610738255	13	0.433362904023379	2	6	1	NaN	1	4	0.0440279895567065	0	1	NaN	12	1	12	1	120	220	320	NaN	520	0.405699664261192	1	1	NaN	1708583.0639962	NaN	1708584.0473085	1708584.56386364
11	19	1	0	90	36.1581920903955	36.241610738255	7	0.233349256012589	2	10	1	NaN	2	5	0.0440279895567065	0	1	NaN	13	1	13	1	120	220	320	NaN	520	0.368926169583574	2	1	NaN	1708585.7808643	NaN	1708586.7642449	1708587.28079213
11	19	1	0	90	36.1581920903955	36.241610738255	25	0.83339020004496	2	11	1	NaN	2	3	0.0440279895567065	0	1	NaN	14	1	14	1	120	220	320	NaN	520	1.09356556949206	1	0	NaN	1708588.4643768	NaN	1708589.4478482	1708589.96438593
11	19	1	0	90	36.1581920903955	36.241610738255	8	0.266684864014387	2	9	6	NaN	2	3	0.0440279895567065	0	1	NaN	15	1	15	1	120	220	320	NaN	520	0.604151769541204	2	1	NaN	1708591.8814433	NaN	1708592.8648485	1708593.38139303
11	19	1	0	90	36.1581920903955	36.241610738255	12	0.400027296021581	2	7	3	NaN	2	4	0.0440279895567065	0	1	NaN	16	1	16	1	120	220	320	NaN	520	0.407252774341032	1	0	NaN	1708594.7984018	NaN	1708595.7817885	1708596.29835413
11	19	1	0	90	36.1581920903955	36.241610738255	25	0.83339020004496	2	7	2	NaN	2	5	0.0440279895567065	0	1	NaN	17	1	17	1	120	220	320	NaN	520	0.721827221801504	1	0	NaN	1708597.5320094	NaN	1708598.515399	1708599.03195418
11	19	1	0	90	36.1581920903955	36.241610738255	20	0.666712160035968	2	7	4	NaN	2	3	0.0440279895567065	0	1	NaN	18	1	18	1	120	220	320	NaN	520	2.536105169449	2	1	NaN	1708600.5656346	NaN	1708601.5490289	1708602.06558163
11	19	1	0	90	36.1581920903955	36.241610738255	6	0.20001364801079	2	5	6	NaN	1	5	0.0440279895567065	0	1	NaN	19	1	19	1	120	220	320	NaN	520	0.628924616845325	1	1	NaN	1708605.4327765	NaN	1708606.4161805	1708606.93272698
11	19	1	0	90	36.1581920903955	36.241610738255	19	0.633376552034169	2	7	5	NaN	2	5	0.0440279895567065	0	1	NaN	20	1	20	1	120	220	320	NaN	520	1.03844166966155	2	1	NaN	1708608.383063	NaN	1708609.36648	1708609.88301513
11	19	1	0	90	36.1581920903955	36.241610738255	8	0.266684864014387	2	10	4	NaN	2	5	0.0440279895567065	0	1	NaN	21	1	21	1	120	220	320	NaN	520	0.95995726948604	2	1	NaN	1708611.7500776	NaN	1708612.7334576	1708613.25002103
11	19	1	0	90	36.1581920903955	36.241610738255	18	0.600040944032371	2	11	4	NaN	2	5	0.0440279895567065	0	1	NaN	22	1	22	1	120	220	320	NaN	520	0.364382021827623	2	1	NaN	1708615.0337396	NaN	1708616.0171195	1708616.53367848
11	19	1	0	90	36.1581920903955	36.241610738255	0	0	1	4	1	NaN	1	4	0.0440279895567065	0	1	NaN	23	1	23	1	110	210	310	NaN	510	0.46444700169377	1	1	NaN	1708617.7172939	NaN	1708618.7007222	1708619.2172627
11	19	1	0	90	36.1581920903955	36.241610738255	24	0.800054592043161	2	9	1	NaN	2	5	0.0440279895567065	0	1	NaN	24	1	24	1	120	220	320	NaN	520	0.449234916828573	1	0	NaN	1708620.5009337	NaN	1708621.4843274	1708622.00087678
11	19	1	0	90	36.1581920903955	36.241610738255	7	0.233349256012589	2	11	2	NaN	2	4	0.0440279895567065	0	1	NaN	25	1	25	1	120	220	320	NaN	520	0.354129021987319	2	1	NaN	1708623.2678412	NaN	1708624.2512942	1708624.76782718
11	19	1	0	90	36.1581920903955	36.241610738255	22	0.733383376039565	2	9	3	NaN	2	4	0.0440279895567065	0	1	NaN	26	1	26	1	120	220	320	NaN	520	0.630950374528766	1	0	NaN	1708625.9348242	NaN	1708626.9182034	1708627.43475533
11	19	1	0	90	36.1581920903955	36.241610738255	0	0	1	9	1	NaN	2	5	0.0440279895567065	0	1	NaN	27	1	27	1	110	210	310	NaN	510	1.52868506964296	1	0	NaN	1708628.885089	NaN	1708629.8684846	1708630.38503953
11	19	1	0	90	36.1581920903955	36.241610738255	14	0.466698512025177	2	2	4	NaN	1	5	0.0440279895567065	0	1	NaN	28	1	28	1	120	220	320	NaN	520	0.46217356948182	1	1	NaN	1708632.7354876	NaN	1708633.7188898	1708634.23542363
11	19	1	0	90	36.1581920903955	36.241610738255	11	0.366691688019782	2	3	6	NaN	1	5	0.0440279895567065	0	1	NaN	29	1	29	1	120	220	320	NaN	520	1.14327446953394	1	1	NaN	1708635.5190966	NaN	1708636.5024726	1708637.01902503
11	19	1	0	90	36.1581920903955	36.241610738255	22	0.733383376039565	2	6	4	NaN	1	5	0.0440279895567065	0	1	NaN	30	1	30	1	120	220	320	NaN	520	0.692002564202994	1	1	NaN	1708638.9860239	NaN	1708639.9694845	1708640.48602694
11	19	1	0	90	36.1581920903955	36.241610738255	6	0.20001364801079	2	4	5	NaN	1	4	0.0440279895567065	0	1	NaN	31	1	31	1	120	220	320	NaN	520	0.603069369448349	1	1	NaN	1708642.003044	NaN	1708642.9864458	1708643.50300163
11	19	1	0	90	36.1581920903955	36.241610738255	17	0.566705336030573	2	7	4	NaN	2	3	0.0440279895567065	0	1	NaN	32	1	32	1	120	220	320	NaN	520	0.693740469403565	1	0	NaN	1708644.9200103	NaN	1708645.9033985	1708646.41995083
11	19	1	0	90	36.1581920903955	36.241610738255	21	0.700047768037766	2	11	3	NaN	2	3	0.0440279895567065	0	1	NaN	33	1	33	1	120	220	320	NaN	520	0.604755221866071	2	1	NaN	1708647.9369849	NaN	1708648.9203617	1708649.43692218
11	19	1	0	90	36.1581920903955	36.241610738255	7	0.233349256012589	2	1	5	NaN	1	3	0.0440279895567065	0	1	NaN	34	1	34	1	120	220	320	NaN	520	0.911076616961509	1	1	NaN	1708650.870466	NaN	1708651.8539826	1708652.37054618
11	19	1	0	90	36.1581920903955	36.241610738255	11	0.366691688019782	2	12	4	NaN	2	4	0.0440279895567065	0	1	NaN	35	1	35	1	120	220	320	NaN	520	0.810975469416007	1	0	NaN	1708654.5709555	NaN	1708655.5544177	1708656.07090333
11	19	1	0	90	36.1581920903955	36.241610738255	13	0.433362904023379	2	4	4	NaN	1	4	0.0440279895567065	0	1	NaN	36	1	36	1	120	220	320	NaN	520	1.46154346945696	1	1	NaN	1708657.7045906	NaN	1708658.6880007	1708659.20454393
11	19	1	0	90	36.1581920903955	36.241610738255	0	0	1	3	3	NaN	1	5	0.0440279895567065	0	1	NaN	37	1	37	1	110	210	310	NaN	510	0.62181802187115	1	1	NaN	1708661.4883458	NaN	1708662.4717017	1708662.98825248
11	19	1	0	90	36.1581920903955	36.241610738255	13	0.433362904023379	2	8	5	NaN	2	4	0.0440279895567065	0	1	NaN	38	1	38	1	120	220	320	NaN	520	0.303911069408059	2	1	NaN	1708664.4219237	NaN	1708665.4053259	1708665.92187283
11	19	1	0	90	36.1581920903955	36.241610738255	12	0.400027296021581	2	5	2	NaN	1	5	0.0440279895567065	0	1	NaN	39	1	39	1	120	220	320	NaN	520	0.583309832029045	1	1	NaN	1708667.0388563	NaN	1708668.0222833	1708668.53880437
11	19	1	0	90	36.1581920903955	36.241610738255	20	0.666712160035968	2	3	5	NaN	1	4	0.0440279895567065	0	1	NaN	40	1	40	1	120	220	320	NaN	520	0.331035817041993	1	1	NaN	1708669.9391414	NaN	1708670.9225245	1708671.43908188
11	19	1	0	90	36.1581920903955	36.241610738255	8	0.266684864014387	2	8	3	NaN	2	4	0.0440279895567065	0	1	NaN	41	1	41	1	120	220	320	NaN	520	2.09666476934217	1	0	NaN	1708672.5894089	NaN	1708673.5727996	1708674.08934353
11	19	1	0	90	36.1581920903955	36.241610738255	12	0.400027296021581	2	11	1	NaN	2	3	0.0440279895567065	0	1	NaN	42	1	42	1	120	220	320	NaN	520	1.71146229491569	2	1	NaN	1708677.0064985	NaN	1708677.9898977	1708678.50645911
11	19	1	0	90	36.1581920903955	36.241610738255	17	0.566705336030573	2	1	6	NaN	1	5	0.0440279895567065	0	1	NaN	43	1	43	1	120	220	320	NaN	520	0.989978916943073	2	0	NaN	1708681.0402405	NaN	1708682.0236154	1708682.54018018
11	19	1	0	90	36.1581920903955	36.241610738255	13	0.433362904023379	2	1	4	NaN	1	3	0.0440279895567065	0	1	NaN	44	1	44	1	120	220	320	NaN	520	0.35335972183384	1	1	NaN	1708684.3405582	NaN	1708685.3239442	1708685.84050978
11	19	1	0	90	36.1581920903955	36.241610738255	9	0.300020472016186	2	7	1	NaN	2	5	0.0440279895567065	0	1	NaN	45	1	45	1	120	220	320	NaN	520	0.326292322017252	1	0	NaN	1708687.0074768	NaN	1708687.990886	1708688.50743948
11	19	1	0	90	36.1581920903955	36.241610738255	18	0.600040944032371	2	8	3	NaN	2	5	0.0440279895567065	0	1	NaN	46	1	46	1	120	220	320	NaN	520	0.373138621915132	1	0	NaN	1708689.6410824	NaN	1708690.6244943	1708691.14103218
11	19	1	0	90	36.1581920903955	36.241610738255	0	0	1	1	1	NaN	1	4	0.0440279895567065	0	1	NaN	47	1	47	1	110	210	310	NaN	510	0.497529922053218	1	1	NaN	1708692.3246784	NaN	1708693.3080709	1708693.82463018
11	19	1	0	90	36.1581920903955	36.241610738255	17	0.566705336030573	2	6	6	NaN	1	5	0.0440279895567065	0	1	NaN	48	1	48	1	120	220	320	NaN	520	0.496135242283344	1	1	NaN	1708695.1416268	NaN	1708696.1250117	1708696.64156786
11	19	1	0	90	36.1581920903955	36.241610738255	9	0.300020472016186	2	12	1	NaN	2	4	0.0440279895567065	0	1	NaN	49	1	49	1	120	220	320	NaN	520	0.575120969675481	1	0	NaN	1708697.9585624	NaN	1708698.9419745	1708699.45850853
11	19	1	0	90	36.1581920903955	36.241610738255	11	0.366691688019782	2	10	3	NaN	2	3	0.0440279895567065	0	1	NaN	50	1	50	1	120	220	320	NaN	520	0.4596849642694	1	0	NaN	1708700.8421879	NaN	1708701.8255731	1708702.34213484
11	19	1	0	90	36.1581920903955	36.241610738255	22	0.733383376039565	2	2	4	NaN	1	3	0.0440279895567065	0	1	NaN	51	1	51	1	120	220	320	NaN	520	0.292773969471455	1	1	NaN	1708703.6091279	NaN	1708704.5925493	1708705.10906513
11	19	1	0	90	36.1581920903955	36.241610738255	10	0.333356080017984	2	3	3	NaN	1	5	0.0440279895567065	0	1	NaN	52	1	52	1	120	220	320	NaN	520	0.324044116772711	1	1	NaN	1708706.2260421	NaN	1708707.2094383	1708707.72599318
11	19	1	0	90	36.1581920903955	36.241610738255	23	0.766718984041363	2	3	6	NaN	1	4	0.0440279895567065	0	1	NaN	53	1	53	1	120	220	320	NaN	520	0.522206969559193	1	1	NaN	1708708.8596692	NaN	1708709.843042	1708710.35957793
11	19	1	0	90	36.1581920903955	36.241610738255	24	0.800054592043161	2	12	4	NaN	2	5	0.0440279895567065	0	1	NaN	54	1	54	1	120	220	320	NaN	520	1.00072022201493	2	1	NaN	1708711.6932436	NaN	1708712.676637	1708713.19320698
11	19	1	0	90	36.1581920903955	36.241610738255	10	0.333356080017984	2	2	2	NaN	1	3	0.0440279895567065	0	1	NaN	55	1	55	1	120	220	320	NaN	520	0.387994769494981	1	1	NaN	1708715.0102439	NaN	1708715.9936498	1708716.51018563
11	19	1	0	90	36.1581920903955	36.241610738255	22	0.733383376039565	2	7	2	NaN	2	5	0.0440279895567065	0	1	NaN	56	1	56	1	120	220	320	NaN	520	0.719798769569024	1	0	NaN	1708717.7105231	NaN	1708718.6939031	1708719.21045603
11	19	1	0	90	36.1581920903955	36.241610738255	21	0.700047768037766	2	9	2	NaN	2	4	0.0440279895567065	0	1	NaN	57	1	57	1	120	220	320	NaN	520	0.797770969336852	1	0	NaN	1708720.7441395	NaN	1708721.7275575	1708722.24409313
11	19	1	0	90	36.1581920903955	36.241610738255	13	0.433362904023379	2	12	2	NaN	2	4	0.0440279895567065	0	1	NaN	58	1	58	1	120	220	320	NaN	520	0.552717469399795	1	0	NaN	1708723.8610204	NaN	1708724.844506	1708725.36106283
11	19	1	0	90	36.1581920903955	36.241610738255	20	0.666712160035968	2	12	4	NaN	2	4	0.0440279895567065	0	1	NaN	59	1	59	1	120	220	320	NaN	520	0.806100821821019	1	0	NaN	1708726.7280778	NaN	1708727.7114522	1708728.22801378
11	19	1	0	90	36.1581920903955	36.241610738255	8	0.266684864014387	2	7	1	NaN	2	3	0.0440279895567065	0	1	NaN	60	1	60	1	120	220	320	NaN	520	0.312849421985447	1	0	NaN	1708729.8450394	NaN	1708730.8284307	1708731.34498888
11	19	1	0	90	36.1581920903955	36.241610738255	6	0.20001364801079	2	2	5	NaN	1	5	0.0440279895567065	0	1	NaN	61	1	61	1	120	220	320	NaN	520	0.998671079752967	1	1	NaN	1708732.8953585	NaN	1708733.8787362	1708734.39528702
11	19	1	0	90	36.1581920903955	36.241610738255	11	0.366691688019782	2	1	1	NaN	1	5	0.0440279895567065	0	1	NaN	62	1	62	1	120	220	320	NaN	520	0.497542542405427	2	0	NaN	1708736.2123312	NaN	1708737.1957159	1708737.71227796
11	19	1	0	90	36.1581920903955	36.241610738255	24	0.800054592043161	2	10	1	NaN	2	5	0.0440279895567065	0	1	NaN	63	1	63	1	120	220	320	NaN	520	0.944513169582933	2	1	NaN	1708739.0292789	NaN	1708740.0126731	1708740.52921593
11	19	1	0	90	36.1581920903955	36.241610738255	15	0.500034120026976	2	8	1	NaN	2	4	0.0440279895567065	0	1	NaN	64	2	1	1	120	220	320	NaN	520	1.02765526948497	1	0	NaN	1708763.698366	NaN	1708764.6817637	1708765.19831463
11	19	1	0	90	36.1581920903955	36.241610738255	15	0.500034120026976	2	11	3	NaN	2	3	0.0440279895567065	0	1	NaN	65	2	2	1	120	220	320	NaN	520	1.88549882196821	1	0	NaN	1708767.048701	NaN	1708768.0320881	1708768.54865848
11	19	1	0	90	36.1581920903955	36.241610738255	7	0.233349256012589	2	11	4	NaN	2	5	0.0440279895567065	0	1	NaN	66	2	3	1	120	220	320	NaN	520	1.4289683168754	2	1	NaN	1708771.2491055	NaN	1708772.2325157	1708772.74905798
11	19	1	0	90	36.1581920903955	36.241610738255	0	0	1	2	3	NaN	1	5	0.0440279895567065	0	1	NaN	67	2	4	1	110	210	310	NaN	510	0.318839869461954	2	0	NaN	1708774.9994782	NaN	1708775.9829371	1708776.49942723
11	19	1	0	90	36.1581920903955	36.241610738255	14	0.466698512025177	2	12	6	NaN	2	5	0.0440279895567065	0	1	NaN	68	2	5	1	120	220	320	NaN	520	1.08477486949414	2	1	NaN	1708777.633094	NaN	1708778.6165185	1708779.13302073
11	19	1	0	90	36.1581920903955	36.241610738255	19	0.633376552034169	2	9	4	NaN	2	3	0.0440279895567065	0	1	NaN	69	2	6	1	120	220	320	NaN	520	0.37248921697028	2	1	NaN	1708781.0333216	NaN	1708782.0168086	1708782.53335088
11	19	1	0	90	36.1581920903955	36.241610738255	25	0.83339020004496	2	10	2	NaN	2	4	0.0440279895567065	0	1	NaN	70	2	7	1	120	220	320	NaN	520	1.44904532190412	1	0	NaN	1708783.7170002	NaN	1708784.7004084	1708785.21695408
11	19	1	0	90	36.1581920903955	36.241610738255	25	0.83339020004496	2	8	3	NaN	2	4	0.0440279895567065	0	1	NaN	71	2	8	1	120	220	320	NaN	520	3.28995928983204	2	1	NaN	1708787.4838983	NaN	1708788.4674235	1708788.98399531
11	19	1	0	90	36.1581920903955	36.241610738255	0	0	1	10	3	NaN	2	5	0.0440279895567065	0	1	NaN	72	2	9	1	110	210	310	NaN	510	0.761338169453666	2	1	NaN	1708793.0846005	NaN	1708794.067994	1708794.58454273
11	19	1	0	90	36.1581920903955	36.241610738255	12	0.400027296021581	2	1	2	NaN	1	5	0.0440279895567065	0	1	NaN	73	2	10	1	120	220	320	NaN	520	1.55780666950159	1	1	NaN	1708796.1682436	NaN	1708797.1516323	1708797.66817843
11	19	1	0	90	36.1581920903955	36.241610738255	22	0.733383376039565	2	12	5	NaN	2	3	0.0440279895567065	0	1	NaN	74	2	11	1	120	220	320	NaN	520	1.03439286956564	1	0	NaN	1708800.051961	NaN	1708801.0353478	1708801.55189223
11	19	1	0	90	36.1581920903955	36.241610738255	22	0.733383376039565	2	7	6	NaN	2	3	0.0440279895567065	0	1	NaN	75	2	12	1	120	220	320	NaN	520	0.267556921811774	2	1	NaN	1708803.4023555	NaN	1708804.3856828	1708804.90222408
11	19	1	0	90	36.1581920903955	36.241610738255	8	0.266684864014387	2	5	5	NaN	1	3	0.0440279895567065	0	1	NaN	76	2	13	1	120	220	320	NaN	520	0.244269369635731	1	1	NaN	1708805.9858577	NaN	1708806.9692606	1708807.48581333
11	19	1	0	90	36.1581920903955	36.241610738255	17	0.566705336030573	2	5	3	NaN	1	3	0.0440279895567065	0	1	NaN	77	2	14	1	120	220	320	NaN	520	0.309173921821639	1	1	NaN	1708808.5527878	NaN	1708809.5362032	1708810.05274168
11	19	1	0	90	36.1581920903955	36.241610738255	9	0.300020472016186	2	2	4	NaN	1	3	0.0440279895567065	0	1	NaN	78	2	15	1	120	220	320	NaN	520	0.292431721929461	2	0	NaN	1708811.1695984	NaN	1708812.1530882	1708812.66966098
11	19	1	0	90	36.1581920903955	36.241610738255	12	0.400027296021581	2	4	6	NaN	1	5	0.0440279895567065	0	1	NaN	79	2	16	1	120	220	320	NaN	520	0.15578381693922	1	1	NaN	1708813.7698784	NaN	1708814.7533625	1708815.26991838
11	19	1	0	90	36.1581920903955	36.241610738255	14	0.466698512025177	2	4	5	NaN	1	5	0.0440279895567065	0	1	NaN	80	2	17	1	120	220	320	NaN	520	0.257137069711462	1	1	NaN	1708816.2369168	NaN	1708817.2202783	1708817.73681993
11	19	1	0	90	36.1581920903955	36.241610738255	6	0.20001364801079	2	12	4	NaN	2	4	0.0440279895567065	0	1	NaN	81	2	18	1	120	220	320	NaN	520	0.274109864374623	2	1	NaN	1708818.8038013	NaN	1708819.787174	1708820.30373684
11	19	1	0	90	36.1581920903955	36.241610738255	7	0.233349256012589	2	9	2	NaN	2	5	0.0440279895567065	0	1	NaN	82	2	19	1	120	220	320	NaN	520	2.60294216964394	2	1	NaN	1708821.3872471	NaN	1708822.3707893	1708822.88732893
11	19	1	0	90	36.1581920903955	36.241610738255	6	0.20001364801079	2	2	6	NaN	1	5	0.0440279895567065	0	1	NaN	83	2	20	1	120	220	320	NaN	520	1.61385292187333	1	1	NaN	1708826.3045297	NaN	1708827.2879242	1708827.80449378
11	19	1	0	90	36.1581920903955	36.241610738255	14	0.466698512025177	2	3	4	NaN	1	4	0.0440279895567065	0	1	NaN	84	2	21	1	120	220	320	NaN	520	4.37614376959391	1	1	NaN	1708830.2382748	NaN	1708831.2216531	1708831.73820093
11	19	1	0	90	36.1581920903955	36.241610738255	22	0.733383376039565	2	2	6	NaN	1	4	0.0440279895567065	0	1	NaN	85	2	22	1	120	220	320	NaN	520	0.595022621797398	2	0	NaN	1708836.9389069	NaN	1708837.9222835	1708838.43886668
11	19	1	0	90	36.1581920903955	36.241610738255	6	0.20001364801079	2	1	1	NaN	1	3	0.0440279895567065	0	1	NaN	86	2	23	1	120	220	320	NaN	520	0.278203574474901	1	1	NaN	1708839.8558734	NaN	1708840.8392724	1708841.35582013
11	19	1	0	90	36.1581920903955	36.241610738255	15	0.500034120026976	2	10	4	NaN	2	4	0.0440279895567065	0	1	NaN	87	2	24	1	120	220	320	NaN	520	0.414658169494942	2	1	NaN	1708842.4394511	NaN	1708843.4228544	1708843.93939643
11	19	1	0	90	36.1581920903955	36.241610738255	24	0.800054592043161	2	4	5	NaN	1	3	0.0440279895567065	0	1	NaN	88	2	25	1	120	220	320	NaN	520	0.393342054216191	1	1	NaN	1708845.1730801	NaN	1708846.1564775	1708846.67300315
11	19	1	0	90	36.1581920903955	36.241610738255	9	0.300020472016186	2	3	4	NaN	1	5	0.0440279895567065	0	1	NaN	89	2	26	1	120	220	320	NaN	520	0.604799521854147	1	1	NaN	1708847.8733113	NaN	1708848.85678	1708849.37327488
11	19	1	0	90	36.1581920903955	36.241610738255	17	0.566705336030573	2	11	3	NaN	2	4	0.0440279895567065	0	1	NaN	90	2	27	1	120	220	320	NaN	520	0.519881021929905	2	1	NaN	1708850.7902922	NaN	1708851.7736737	1708852.29021778
11	19	1	0	90	36.1581920903955	36.241610738255	14	0.466698512025177	2	5	6	NaN	1	5	0.0440279895567065	0	1	NaN	91	2	28	1	120	220	320	NaN	520	0.31044906959869	1	1	NaN	1708853.6237561	NaN	1708854.6072755	1708855.12383803
11	19	1	0	90	36.1581920903955	36.241610738255	14	0.466698512025177	2	9	1	NaN	2	5	0.0440279895567065	0	1	NaN	92	2	29	1	120	220	320	NaN	520	1.07716827979311	2	1	NaN	1708856.2408258	NaN	1708857.2242771	1708857.74075742
11	19	1	0	90	36.1581920903955	36.241610738255	8	0.266684864014387	2	1	6	NaN	1	3	0.0440279895567065	0	1	NaN	93	2	30	1	120	220	320	NaN	520	0.949346469482407	1	1	NaN	1708859.6411533	NaN	1708860.6245342	1708861.14109073
11	19	1	0	90	36.1581920903955	36.241610738255	24	0.800054592043161	2	1	2	NaN	1	5	0.0440279895567065	0	1	NaN	94	2	31	1	120	220	320	NaN	520	0.706310121808201	1	1	NaN	1708862.90814	NaN	1708863.8915534	1708864.40808898
11	19	1	0	90	36.1581920903955	36.241610738255	9	0.300020472016186	2	6	6	NaN	1	3	0.0440279895567065	0	1	NaN	95	2	32	1	120	220	320	NaN	520	0.312925484729931	1	1	NaN	1708865.9251056	NaN	1708866.9085016	1708867.42504402
11	19	1	0	90	36.1581920903955	36.241610738255	13	0.433362904023379	2	6	5	NaN	1	3	0.0440279895567065	0	1	NaN	96	2	33	1	120	220	320	NaN	520	0.535666569601744	1	1	NaN	1708868.5586695	NaN	1708869.5420816	1708870.05864563
11	19	1	0	90	36.1581920903955	36.241610738255	23	0.766718984041363	2	2	1	NaN	1	5	0.0440279895567065	0	1	NaN	97	2	34	1	120	220	320	NaN	520	0.325294484850019	2	0	NaN	1708871.4089713	NaN	1708872.3923716	1708872.90891742
11	19	1	0	90	36.1581920903955	36.241610738255	6	0.20001364801079	2	6	6	NaN	1	3	0.0440279895567065	0	1	NaN	98	2	35	1	120	220	320	NaN	520	0.410969442455098	1	1	NaN	1708874.0592398	NaN	1708875.0425289	1708875.55918226
11	19	1	0	90	36.1581920903955	36.241610738255	9	0.300020472016186	2	11	5	NaN	2	4	0.0440279895567065	0	1	NaN	99	2	36	1	120	220	320	NaN	520	0.877625469584018	1	0	NaN	1708876.7926907	NaN	1708877.7762268	1708878.29278293
11	19	1	0	90	36.1581920903955	36.241610738255	13	0.433362904023379	2	11	3	NaN	2	4	0.0440279895567065	0	1	NaN	100	2	37	1	120	220	320	NaN	520	0.429897969588637	2	1	NaN	1708879.9764819	NaN	1708880.9598733	1708881.47642713
11	19	1	0	90	36.1581920903955	36.241610738255	7	0.233349256012589	2	7	2	NaN	2	5	0.0440279895567065	0	1	NaN	101	2	38	1	120	220	320	NaN	520	1.06403646944091	1	0	NaN	1708882.7100932	NaN	1708883.693486	1708884.21002843
11	19	1	0	90	36.1581920903955	36.241610738255	24	0.800054592043161	2	2	1	NaN	1	4	0.0440279895567065	0	1	NaN	102	2	39	1	120	220	320	NaN	520	2.21669402183034	1	1	NaN	1708886.0936472	NaN	1708887.0771444	1708887.59370608
11	19	1	0	90	36.1581920903955	36.241610738255	13	0.433362904023379	2	4	1	NaN	1	3	0.0440279895567065	0	1	NaN	103	2	40	1	120	220	320	NaN	520	0.482905369484797	1	1	NaN	1708890.6275401	NaN	1708891.610913	1708892.12747193
11	19	1	0	90	36.1581920903955	36.241610738255	25	0.83339020004496	2	7	5	NaN	2	5	0.0440279895567065	0	1	NaN	104	2	41	1	120	220	320	NaN	520	5.53818856971338	2	1	NaN	1708893.4278221	NaN	1708894.4112116	1708894.92774733
11	19	1	0	90	36.1581920903955	36.241610738255	19	0.633376552034169	2	5	2	NaN	1	5	0.0440279895567065	0	1	NaN	105	2	42	1	120	220	320	NaN	520	0.367696769302711	1	1	NaN	1708901.2784504	NaN	1708902.2619761	1708902.77852593
11	19	1	0	90	36.1581920903955	36.241610738255	7	0.233349256012589	2	12	3	NaN	2	5	0.0440279895567065	0	1	NaN	106	2	43	1	120	220	320	NaN	520	0.308378769550472	2	1	NaN	1708903.9621974	NaN	1708904.9455733	1708905.46212023
11	19	1	0	90	36.1581920903955	36.241610738255	25	0.83339020004496	2	10	6	NaN	2	3	0.0440279895567065	0	1	NaN	107	2	44	1	120	220	320	NaN	520	0.19505752180703	2	1	NaN	1708906.5791014	NaN	1708907.5624987	1708908.07905458
11	19	1	0	90	36.1581920903955	36.241610738255	15	0.500034120026976	2	7	6	NaN	2	3	0.0440279895567065	0	1	NaN	108	2	45	1	120	220	320	NaN	520	0.46994386962615	1	0	NaN	1708909.0960097	NaN	1708910.0793946	1708910.59595893
11	19	1	0	90	36.1581920903955	36.241610738255	21	0.700047768037766	2	2	1	NaN	1	4	0.0440279895567065	0	1	NaN	109	2	46	1	120	220	320	NaN	520	0.430860669584945	2	0	NaN	1708911.8796176	NaN	1708912.8630232	1708913.37956133
11	19	1	0	90	36.1581920903955	36.241610738255	23	0.766718984041363	2	5	2	NaN	1	5	0.0440279895567065	0	1	NaN	110	2	47	1	120	220	320	NaN	520	0.233272189740092	1	1	NaN	1708914.6132162	NaN	1708915.5966184	1708916.11317241
11	19	1	0	90	36.1581920903955	36.241610738255	13	0.433362904023379	2	3	1	NaN	1	5	0.0440279895567065	0	1	NaN	111	2	48	1	120	220	320	NaN	520	0.306555769406259	2	0	NaN	1708917.163477	NaN	1708918.1468685	1708918.66341563
11	19	1	0	90	36.1581920903955	36.241610738255	7	0.233349256012589	2	10	6	NaN	2	5	0.0440279895567065	0	1	NaN	112	2	49	1	120	220	320	NaN	520	0.266076921951026	2	1	NaN	1708919.7804076	NaN	1708920.7637919	1708921.28035008
11	19	1	0	90	36.1581920903955	36.241610738255	24	0.800054592043161	2	2	2	NaN	1	3	0.0440279895567065	0	1	NaN	113	2	50	1	120	220	320	NaN	520	0.434077464276925	2	0	NaN	1708922.3639876	NaN	1708923.3472909	1708923.86392584
11	19	1	0	90	36.1581920903955	36.241610738255	23	0.766718984041363	2	10	5	NaN	2	5	0.0440279895567065	0	1	NaN	114	2	51	1	120	220	320	NaN	520	0.292002469534054	1	0	NaN	1708925.1142677	NaN	1708926.0976507	1708926.61420813
11	19	1	0	90	36.1581920903955	36.241610738255	10	0.333356080017984	2	9	3	NaN	2	5	0.0440279895567065	0	1	NaN	115	2	52	1	120	220	320	NaN	520	0.387593521736562	2	1	NaN	1708927.7145125	NaN	1708928.6979158	1708929.21445928
11	19	1	0	90	36.1581920903955	36.241610738255	21	0.700047768037766	2	7	4	NaN	2	5	0.0440279895567065	0	1	NaN	116	2	53	1	120	220	320	NaN	520	0.991755689727142	1	0	NaN	1708930.4147729	NaN	1708931.398176	1708931.91473551
11	19	1	0	90	36.1581920903955	36.241610738255	9	0.300020472016186	2	8	1	NaN	2	5	0.0440279895567065	0	1	NaN	117	2	54	1	120	220	320	NaN	520	1.24326528981328	2	1	NaN	1708933.7149843	NaN	1708934.6984946	1708935.21504801
11	19	1	0	90	36.1581920903955	36.241610738255	10	0.333356080017984	2	1	3	NaN	1	5	0.0440279895567065	0	1	NaN	118	2	55	1	120	220	320	NaN	520	0.631722869584337	1	1	NaN	1708937.7988096	NaN	1708938.7822292	1708939.29878293
11	19	1	0	90	36.1581920903955	36.241610738255	12	0.400027296021581	2	3	2	NaN	1	3	0.0440279895567065	0	1	NaN	119	2	56	1	120	220	320	NaN	520	3.77761106938124	1	1	NaN	1708940.749	NaN	1708941.7325304	1708942.24907673
11	19	1	0	90	36.1581920903955	36.241610738255	21	0.700047768037766	2	6	2	NaN	1	4	0.0440279895567065	0	1	NaN	120	2	57	1	120	220	320	NaN	520	0.38079094234854	1	1	NaN	1708946.8497683	NaN	1708947.8331626	1708948.34968926
11	19	1	0	90	36.1581920903955	36.241610738255	9	0.300020472016186	2	4	2	NaN	1	5	0.0440279895567065	0	1	NaN	121	2	58	1	120	220	320	NaN	520	0.376630669459701	1	1	NaN	1708949.5500131	NaN	1708950.5334882	1708951.04994093
11	19	1	0	90	36.1581920903955	36.241610738255	18	0.600040944032371	2	12	5	NaN	2	5	0.0440279895567065	0	1	NaN	122	2	59	1	120	220	320	NaN	520	0.396109316963702	1	0	NaN	1708952.2502026	NaN	1708953.2336986	1708953.75020298
11	19	1	0	90	36.1581920903955	36.241610738255	18	0.600040944032371	2	11	4	NaN	2	4	0.0440279895567065	0	1	NaN	123	2	60	1	120	220	320	NaN	520	1.03894477966242	2	1	NaN	1708954.9670888	NaN	1708955.9506264	1708956.46714332
11	19	1	0	90	36.1581920903955	36.241610738255	0	0	1	8	6	NaN	2	5	0.0440279895567065	0	1	NaN	124	2	61	1	110	210	310	NaN	510	0.232083499897271	2	1	NaN	1708958.3341779	NaN	1708959.3175962	1708959.8341385
11	19	1	0	90	36.1581920903955	36.241610738255	11	0.366691688019782	2	11	2	NaN	2	4	0.0440279895567065	0	1	NaN	125	2	62	1	120	220	320	NaN	520	0.377634842414409	2	1	NaN	1708960.8843924	NaN	1708961.8678389	1708962.38440386
11	19	1	0	90	36.1581920903955	36.241610738255	12	0.400027296021581	2	6	6	NaN	1	5	0.0440279895567065	0	1	NaN	126	2	63	1	120	220	320	NaN	520	0.189565622014925	1	1	NaN	1708963.5847152	NaN	1708964.5681243	1708965.08466438
11	19	1	0	90	36.1581920903955	36.241610738255	23	0.766718984041363	2	6	3	NaN	1	4	0.0440279895567065	0	1	NaN	127	3	1	1	120	220	320	NaN	520	0.528161037247628	1	1	NaN	1708998.2381164	NaN	1708999.2215113	1708999.73806536
11	19	1	0	90	36.1581920903955	36.241610738255	11	0.366691688019782	2	2	2	NaN	1	5	0.0440279895567065	0	1	NaN	128	3	2	1	120	220	320	NaN	520	0.144574421923608	1	1	NaN	1709001.2217345	NaN	1709002.2051327	1709002.72169548
11	19	1	0	90	36.1581920903955	36.241610738255	18	0.600040944032371	2	4	3	NaN	1	3	0.0440279895567065	0	1	NaN	129	3	3	1	120	220	320	NaN	520	0.365890969522297	2	0	NaN	1709003.6886636	NaN	1709004.6720442	1709005.18860463
11	19	1	0	90	36.1581920903955	36.241610738255	11	0.366691688019782	2	3	3	NaN	1	3	0.0440279895567065	0	1	NaN	130	3	4	1	120	220	320	NaN	520	0.26597772189416	1	1	NaN	1709006.3721431	NaN	1709007.3556495	1709007.87220178
11	19	1	0	90	36.1581920903955	36.241610738255	16	0.533369728028774	2	2	3	NaN	1	3	0.0440279895567065	0	1	NaN	131	3	5	1	120	220	320	NaN	520	0.266790827270597	1	1	NaN	1709008.9558324	NaN	1709009.9392351	1709010.45578957
11	19	1	0	90	36.1581920903955	36.241610738255	17	0.566705336030573	2	11	6	NaN	2	4	0.0440279895567065	0	1	NaN	132	3	6	1	120	220	320	NaN	520	1.29890162171796	2	1	NaN	1709011.5394283	NaN	1709012.5228218	1709013.03937928
11	19	1	0	90	36.1581920903955	36.241610738255	0	0	1	8	5	NaN	2	4	0.0440279895567065	0	1	NaN	133	3	7	1	110	210	310	NaN	510	0.265854069497436	2	1	NaN	1709015.1564504	NaN	1709016.1398506	1709016.65639293
11	19	1	0	90	36.1581920903955	36.241610738255	19	0.633376552034169	2	4	3	NaN	1	4	0.0440279895567065	0	1	NaN	134	3	8	1	120	220	320	NaN	520	0.402440769597888	1	1	NaN	1709017.7400401	NaN	1709018.7234169	1709019.23997493
11	19	1	0	90	36.1581920903955	36.241610738255	7	0.233349256012589	2	7	5	NaN	2	3	0.0440279895567065	0	1	NaN	135	3	9	1	120	220	320	NaN	520	0.10131606948562	2	1	NaN	1709020.4569938	NaN	1709021.4403708	1709021.95691623
11	19	1	0	90	36.1581920903955	36.241610738255	7	0.233349256012589	2	8	1	NaN	2	4	0.0440279895567065	0	1	NaN	136	3	10	1	120	220	320	NaN	520	0.332599821966141	1	0	NaN	1709022.8738843	NaN	1709023.8572653	1709024.37382618
11	19	1	0	90	36.1581920903955	36.241610738255	19	0.633376552034169	2	8	6	NaN	2	3	0.0440279895567065	0	1	NaN	137	3	11	1	120	220	320	NaN	520	0.282195769483224	1	0	NaN	1709025.5241287	NaN	1709026.5075369	1709027.02408533
11	19	1	0	90	36.1581920903955	36.241610738255	10	0.333356080017984	2	11	4	NaN	2	3	0.0440279895567065	0	1	NaN	138	3	12	1	120	220	320	NaN	520	0.25826787459664	2	1	NaN	1709028.1243897	NaN	1709029.1077878	1709029.62434283
11	19	1	0	90	36.1581920903955	36.241610738255	16	0.533369728028774	2	11	5	NaN	2	4	0.0440279895567065	0	1	NaN	139	3	13	1	120	220	320	NaN	520	0.380204916931689	2	1	NaN	1709031.2580169	NaN	1709032.2414261	1709032.75797668
11	19	1	0	90	36.1581920903955	36.241610738255	16	0.533369728028774	2	8	3	NaN	2	3	0.0440279895567065	0	1	NaN	140	3	14	1	120	220	320	NaN	520	0.32813976937905	2	1	NaN	1709033.9582993	NaN	1709034.9416862	1709035.45824873
11	19	1	0	90	36.1581920903955	36.241610738255	14	0.466698512025177	2	1	5	NaN	1	4	0.0440279895567065	0	1	NaN	141	3	15	1	120	220	320	NaN	520	0.7748086694628	1	1	NaN	1709036.5918968	NaN	1709037.5753195	1709038.09182823
11	19	1	0	90	36.1581920903955	36.241610738255	17	0.566705336030573	2	4	2	NaN	1	4	0.0440279895567065	0	1	NaN	142	3	16	1	120	220	320	NaN	520	0.267156174406409	1	1	NaN	1709039.6755453	NaN	1709040.6588816	1709041.17547603
11	19	1	0	90	36.1581920903955	36.241610738255	13	0.433362904023379	2	7	5	NaN	2	3	0.0440279895567065	0	1	NaN	143	3	17	1	120	220	320	NaN	520	0.171283869538456	2	1	NaN	1709042.2589905	NaN	1709043.2425312	1709043.75905933
11	19	1	0	90	36.1581920903955	36.241610738255	14	0.466698512025177	2	7	4	NaN	2	3	0.0440279895567065	0	1	NaN	144	3	18	1	120	220	320	NaN	520	0.375584569526836	2	1	NaN	1709044.7426915	NaN	1709045.7260685	1709046.24263773
11	19	1	0	90	36.1581920903955	36.241610738255	7	0.233349256012589	2	2	3	NaN	1	5	0.0440279895567065	0	1	NaN	145	3	19	1	120	220	320	NaN	520	0.46717352187261	1	1	NaN	1709047.4429521	NaN	1709048.4263614	1709048.94290808
11	19	1	0	90	36.1581920903955	36.241610738255	24	0.800054592043161	2	1	4	NaN	1	4	0.0440279895567065	0	1	NaN	146	3	20	1	120	220	320	NaN	520	0.483766369521618	1	1	NaN	1709050.2265698	NaN	1709051.2099392	1709051.72650283
11	19	1	0	90	36.1581920903955	36.241610738255	21	0.700047768037766	2	10	1	NaN	2	5	0.0440279895567065	0	1	NaN	147	3	21	1	120	220	320	NaN	520	0.235813269624487	2	1	NaN	1709053.0268482	NaN	1709054.0102273	1709054.52677803
11	19	1	0	90	36.1581920903955	36.241610738255	10	0.333356080017984	2	7	1	NaN	2	3	0.0440279895567065	0	1	NaN	148	3	22	1	120	220	320	NaN	520	0.309557721950114	2	1	NaN	1709055.5769679	NaN	1709056.5604807	1709057.07704018
11	19	1	0	90	36.1581920903955	36.241610738255	13	0.433362904023379	2	2	4	NaN	1	3	0.0440279895567065	0	1	NaN	149	3	23	1	120	220	320	NaN	520	0.252459594979882	1	1	NaN	1709058.1939696	NaN	1709059.1774075	1709059.6939699
11	19	1	0	90	36.1581920903955	36.241610738255	12	0.400027296021581	2	7	5	NaN	2	5	0.0440279895567065	0	1	NaN	150	3	24	1	120	220	320	NaN	520	0.225968369515613	2	1	NaN	1709060.8442779	NaN	1709061.8276674	1709062.34421903
11	19	1	0	90	36.1581920903955	36.241610738255	8	0.266684864014387	2	8	5	NaN	2	3	0.0440279895567065	0	1	NaN	151	3	25	1	120	220	320	NaN	520	0.896785869495943	1	0	NaN	1709063.6777658	NaN	1709064.661282	1709065.17782873
11	19	1	0	90	36.1581920903955	36.241610738255	6	0.20001364801079	2	5	2	NaN	1	5	0.0440279895567065	0	1	NaN	152	3	26	1	120	220	320	NaN	520	0.744235394988209	1	1	NaN	1709066.8782122	NaN	1709067.8616669	1709068.37815171
11	19	1	0	90	36.1581920903955	36.241610738255	0	0	1	2	2	NaN	1	5	0.0440279895567065	0	1	NaN	153	3	27	1	110	210	310	NaN	510	0.245166121982038	1	1	NaN	1709069.945172	NaN	1709070.9285666	1709071.44511358
11	19	1	0	90	36.1581920903955	36.241610738255	6	0.20001364801079	2	3	6	NaN	1	4	0.0440279895567065	0	1	NaN	154	3	28	1	120	220	320	NaN	520	0.239276821957901	1	1	NaN	1709072.4954141	NaN	1709073.4788149	1709073.99536568
11	19	1	0	90	36.1581920903955	36.241610738255	21	0.700047768037766	2	8	2	NaN	2	4	0.0440279895567065	0	1	NaN	155	3	29	1	120	220	320	NaN	520	0.336504742503166	2	1	NaN	1709075.0456823	NaN	1709076.0290812	1709076.54562126
11	19	1	0	90	36.1581920903955	36.241610738255	10	0.333356080017984	2	8	4	NaN	2	5	0.0440279895567065	0	1	NaN	156	3	30	1	120	220	320	NaN	520	0.270754016935825	2	1	NaN	1709077.6959279	NaN	1709078.6793267	1709079.19587868
11	19	1	0	90	36.1581920903955	36.241610738255	0	0	1	11	1	NaN	2	3	0.0440279895567065	0	1	NaN	157	3	31	1	110	210	310	NaN	510	0.210781874367967	2	1	NaN	1709080.5795771	NaN	1709081.5629389	1709082.07949543
11	19	1	0	90	36.1581920903955	36.241610738255	11	0.366691688019782	2	7	5	NaN	2	5	0.0440279895567065	0	1	NaN	158	3	32	1	120	220	320	NaN	520	4.68453566962853	2	1	NaN	1709083.1297207	NaN	1709084.1131861	1709084.62976623
11	19	1	0	90	36.1581920903955	36.241610738255	8	0.266684864014387	2	9	5	NaN	2	4	0.0440279895567065	0	1	NaN	159	3	33	1	120	220	320	NaN	520	0.323940221918747	1	0	NaN	1709090.1303584	NaN	1709091.1138866	1709091.63043558
11	19	1	0	90	36.1581920903955	36.241610738255	6	0.20001364801079	2	4	5	NaN	1	4	0.0440279895567065	0	1	NaN	160	3	34	1	120	220	320	NaN	520	0.298338969703764	1	1	NaN	1709092.7640746	NaN	1709093.7474803	1709094.26402283
11	19	1	0	90	36.1581920903955	36.241610738255	20	0.666712160035968	2	3	5	NaN	1	3	0.0440279895567065	0	1	NaN	161	3	35	1	120	220	320	NaN	520	0.345554569503292	1	1	NaN	1709095.3808992	NaN	1709096.3644096	1709096.88095293
11	19	1	0	90	36.1581920903955	36.241610738255	0	0	1	11	2	NaN	2	3	0.0440279895567065	0	1	NaN	162	3	36	1	110	210	310	NaN	510	0.67884131683968	1	0	NaN	1709098.0479664	NaN	1709099.0313235	1709099.54787858
11	19	1	0	90	36.1581920903955	36.241610738255	16	0.533369728028774	2	3	2	NaN	1	4	0.0440279895567065	0	1	NaN	163	3	37	1	120	220	320	NaN	520	0.27843486960046	1	1	NaN	1709101.0482293	NaN	1709102.0316538	1709102.54817073
11	19	1	0	90	36.1581920903955	36.241610738255	21	0.700047768037766	2	11	6	NaN	2	5	0.0440279895567065	0	1	NaN	164	3	38	1	120	220	320	NaN	520	1.16627736948431	2	1	NaN	1709103.6484807	NaN	1709104.6318972	1709105.14842913
11	19	1	0	90	36.1581920903955	36.241610738255	19	0.633376552034169	2	3	4	NaN	1	5	0.0440279895567065	0	1	NaN	165	3	39	1	120	220	320	NaN	520	0.386287737404928	1	1	NaN	1709107.1321835	NaN	1709108.1155557	1709108.63213356
11	19	1	0	90	36.1581920903955	36.241610738255	14	0.466698512025177	2	2	2	NaN	1	5	0.0440279895567065	0	1	NaN	166	3	40	1	120	220	320	NaN	520	0.309953189687803	1	1	NaN	1709109.8324153	NaN	1709110.8158227	1709111.33237331
11	19	1	0	90	36.1581920903955	36.241610738255	21	0.700047768037766	2	3	4	NaN	1	4	0.0440279895567065	0	1	NaN	167	3	41	1	120	220	320	NaN	520	0.18911546934396	1	1	NaN	1709112.4493521	NaN	1709113.4327537	1709113.94929333
11	19	1	0	90	36.1581920903955	36.241610738255	6	0.20001364801079	2	7	4	NaN	2	4	0.0440279895567065	0	1	NaN	168	3	42	1	120	220	320	NaN	520	0.319158737547696	2	1	NaN	1709114.9996299	NaN	1709115.9829958	1709116.49954436
11	19	1	0	90	36.1581920903955	36.241610738255	17	0.566705336030573	2	7	4	NaN	2	4	0.0440279895567065	0	1	NaN	169	3	43	1	120	220	320	NaN	520	0.285145869478583	2	1	NaN	1709117.6331918	NaN	1709118.6165998	1709119.13314413
11	19	1	0	90	36.1581920903955	36.241610738255	9	0.300020472016186	2	9	5	NaN	2	3	0.0440279895567065	0	1	NaN	170	3	44	1	120	220	320	NaN	520	0.0104169694241136	1	0	NaN	1709120.2334723	NaN	1709121.2168562	1709121.73339313
11	19	1	0	90	36.1581920903955	36.241610738255	17	0.566705336030573	2	12	1	NaN	2	3	0.0440279895567065	0	1	NaN	171	3	45	1	120	220	320	NaN	520	0.168081721989438	1	0	NaN	1709122.5503343	NaN	1709123.5337407	1709124.05029868
11	19	1	0	90	36.1581920903955	36.241610738255	10	0.333356080017984	2	4	4	NaN	1	3	0.0440279895567065	0	1	NaN	172	3	46	1	120	220	320	NaN	520	0.176505269482732	1	1	NaN	1709125.3340134	NaN	1709126.3173545	1709126.83388753
11	19	1	0	90	36.1581920903955	36.241610738255	16	0.533369728028774	2	7	1	NaN	2	3	0.0440279895567065	0	1	NaN	173	3	47	1	120	220	320	NaN	520	0.188288921723142	2	1	NaN	1709127.8341905	NaN	1709128.8175857	1709129.33414428
11	19	1	0	90	36.1581920903955	36.241610738255	10	0.333356080017984	2	12	1	NaN	2	3	0.0440279895567065	0	1	NaN	174	3	48	1	120	220	320	NaN	520	0.250771221704781	1	0	NaN	1709130.467808	NaN	1709131.4511801	1709131.96773588
11	19	1	0	90	36.1581920903955	36.241610738255	8	0.266684864014387	2	3	3	NaN	1	3	0.0440279895567065	0	1	NaN	175	3	49	1	120	220	320	NaN	520	0.251724569359794	1	1	NaN	1709133.0347448	NaN	1709134.0181038	1709134.53465143
11	19	1	0	90	36.1581920903955	36.241610738255	11	0.366691688019782	2	4	4	NaN	1	4	0.0440279895567065	0	1	NaN	176	3	50	1	120	220	320	NaN	520	0.192305269418284	2	0	NaN	1709135.7182247	NaN	1709136.7016931	1709137.21824333
11	19	1	0	90	36.1581920903955	36.241610738255	17	0.566705336030573	2	9	3	NaN	2	5	0.0440279895567065	0	1	NaN	177	3	51	1	120	220	320	NaN	520	0.195960169425234	2	1	NaN	1709138.218416	NaN	1709139.2019409	1709139.71848803
11	19	1	0	90	36.1581920903955	36.241610738255	8	0.266684864014387	2	11	1	NaN	2	4	0.0440279895567065	0	1	NaN	178	3	52	1	120	220	320	NaN	520	0.670968895079568	1	0	NaN	1709140.735456	NaN	1709141.7188531	1709142.23541791
11	19	1	0	90	36.1581920903955	36.241610738255	22	0.733383376039565	2	12	2	NaN	2	4	0.0440279895567065	0	1	NaN	179	3	53	1	120	220	320	NaN	520	0.303402421763167	1	0	NaN	1709143.7190977	NaN	1709144.7024857	1709145.21904308
11	19	1	0	90	36.1581920903955	36.241610738255	22	0.733383376039565	2	1	3	NaN	1	5	0.0440279895567065	0	1	NaN	180	3	54	1	120	220	320	NaN	520	0.190514842513949	1	1	NaN	1709146.3358928	NaN	1709147.3194085	1709147.83596486
11	19	1	0	90	36.1581920903955	36.241610738255	23	0.766718984041363	2	4	1	NaN	1	5	0.0440279895567065	0	1	NaN	181	3	55	1	120	220	320	NaN	520	0.24234122177586	1	1	NaN	1709148.8362659	NaN	1709149.8196626	1709150.33620478
11	19	1	0	90	36.1581920903955	36.241610738255	12	0.400027296021581	2	10	1	NaN	2	3	0.0440279895567065	0	1	NaN	182	3	56	1	120	220	320	NaN	520	0.259767142590135	2	1	NaN	1709151.4031783	NaN	1709152.3865951	1709152.90313206
11	19	1	0	90	36.1581920903955	36.241610738255	9	0.300020472016186	2	2	1	NaN	1	3	0.0440279895567065	0	1	NaN	183	3	57	1	120	220	320	NaN	520	1.00363304233178	1	1	NaN	1709153.9867798	NaN	1709154.9701626	1709155.48672256
11	19	1	0	90	36.1581920903955	36.241610738255	7	0.233349256012589	2	4	2	NaN	1	4	0.0440279895567065	0	1	NaN	184	3	58	1	120	220	320	NaN	520	1.16672916943207	1	1	NaN	1709157.3036191	NaN	1709158.2871453	1709158.80369783
11	19	1	0	90	36.1581920903955	36.241610738255	15	0.500034120026976	2	9	2	NaN	2	3	0.0440279895567065	0	1	NaN	185	3	59	1	120	220	320	NaN	520	0.147314121946692	1	0	NaN	1709160.7874337	NaN	1709161.7708328	1709162.28738298
11	19	1	0	90	36.1581920903955	36.241610738255	22	0.733383376039565	2	4	6	NaN	1	5	0.0440279895567065	0	1	NaN	186	3	60	1	120	220	320	NaN	520	0.248527889838442	1	1	NaN	1709163.2543478	NaN	1709164.2377402	1709164.75429581
11	19	1	0	90	36.1581920903955	36.241610738255	12	0.400027296021581	2	1	3	NaN	1	5	0.0440279895567065	0	1	NaN	187	3	61	1	120	220	320	NaN	520	0.297085269587114	1	1	NaN	1709165.821242	NaN	1709166.8046548	1709167.32120703
11	19	1	0	90	36.1581920903955	36.241610738255	19	0.633376552034169	2	12	1	NaN	2	4	0.0440279895567065	0	1	NaN	188	3	62	1	120	220	320	NaN	520	0.0249974220059812	2	1	NaN	1709168.4213933	NaN	1709169.4049118	1709169.92146938
11	19	1	0	90	36.1581920903955	36.241610738255	18	0.600040944032371	2	7	6	NaN	2	4	0.0440279895567065	0	1	NaN	189	3	63	1	120	220	320	NaN	520	0.15550846955739	2	1	NaN	1709170.7549525	NaN	1709171.7384845	1709172.25502353
11	19	1	0	90	36.1581920903955	36.241610738255	23	0.766718984041363	2	10	5	NaN	2	4	0.0440279895567065	0	1	NaN	190	4	1	1	120	220	320	NaN	520	0.178158469498158	1	0	NaN	1709197.9244361	NaN	1709198.9078429	1709199.42435893
11	19	1	0	90	36.1581920903955	36.241610738255	9	0.300020472016186	2	3	2	NaN	1	3	0.0440279895567065	0	1	NaN	191	4	2	1	120	220	320	NaN	520	0.24587411689572	1	1	NaN	1709200.4246663	NaN	1709201.408031	1709201.92460338
11	19	1	0	90	36.1581920903955	36.241610738255	23	0.766718984041363	2	11	2	NaN	2	4	0.0440279895567065	0	1	NaN	192	4	3	1	120	220	320	NaN	520	0.519017022103071	1	0	NaN	1709202.9915958	NaN	1709203.9750338	1709204.49152928
11	19	1	0	90	36.1581920903955	36.241610738255	9	0.300020472016186	2	8	2	NaN	2	3	0.0440279895567065	0	1	NaN	193	4	4	1	120	220	320	NaN	520	0.333709069527686	1	0	NaN	1709205.8251968	NaN	1709206.8085712	1709207.32514233
11	19	1	0	90	36.1581920903955	36.241610738255	21	0.700047768037766	2	12	5	NaN	2	5	0.0440279895567065	0	1	NaN	194	4	5	1	120	220	320	NaN	520	0.267450621817261	2	1	NaN	1709208.4754516	NaN	1709209.4588531	1709209.97540988
11	19	1	0	90	36.1581920903955	36.241610738255	19	0.633376552034169	2	3	4	NaN	1	5	0.0440279895567065	0	1	NaN	195	4	6	1	120	220	320	NaN	520	0.243854069616646	1	1	NaN	1709211.0590601	NaN	1709212.0424351	1709212.55898553
11	19	1	0	90	36.1581920903955	36.241610738255	19	0.633376552034169	2	11	1	NaN	2	4	0.0440279895567065	0	1	NaN	196	4	7	1	120	220	320	NaN	520	0.261403469368815	1	0	NaN	1709213.6091876	NaN	1709214.5926612	1709215.10924033
11	19	1	0	90	36.1581920903955	36.241610738255	12	0.400027296021581	2	11	6	NaN	2	4	0.0440279895567065	0	1	NaN	197	4	8	1	120	220	320	NaN	520	1.65437966957688	1	0	NaN	1709216.1760986	NaN	1709217.1596048	1709217.67615663
11	19	1	0	90	36.1581920903955	36.241610738255	20	0.666712160035968	2	5	4	NaN	1	5	0.0440279895567065	0	1	NaN	198	4	9	1	120	220	320	NaN	520	6.37547906953841	1	1	NaN	1709220.1432869	NaN	1709221.1266667	1709221.64320943
11	19	1	0	90	36.1581920903955	36.241610738255	17	0.566705336030573	2	6	4	NaN	1	5	0.0440279895567065	0	1	NaN	199	4	10	1	120	220	320	NaN	520	0.330412169452757	1	1	NaN	1709228.8441364	NaN	1709229.8274959	1709230.34406633
11	19	1	0	90	36.1581920903955	36.241610738255	15	0.500034120026976	2	5	6	NaN	1	4	0.0440279895567065	0	1	NaN	200	4	11	1	120	220	320	NaN	520	0.16098955925554	1	1	NaN	1709231.4777295	NaN	1709232.4611109	1709232.97766884
11	19	1	0	90	36.1581920903955	36.241610738255	16	0.533369728028774	2	12	3	NaN	2	5	0.0440279895567065	0	1	NaN	201	4	12	1	120	220	320	NaN	520	0.878275669645518	1	0	NaN	1709233.9446076	NaN	1709234.92799	1709235.44456673
11	19	1	0	90	36.1581920903955	36.241610738255	10	0.333356080017984	2	1	4	NaN	1	3	0.0440279895567065	0	1	NaN	202	4	13	1	120	220	320	NaN	520	0.419951021904126	1	1	NaN	1709237.5949979	NaN	1709238.5783723	1709239.09493628
11	19	1	0	90	36.1581920903955	36.241610738255	11	0.366691688019782	2	5	5	NaN	1	5	0.0440279895567065	0	1	NaN	203	4	14	1	120	220	320	NaN	520	0.19790666969493	2	0	NaN	1709240.3286	NaN	1709241.3119843	1709241.82852733
11	19	1	0	90	36.1581920903955	36.241610738255	20	0.666712160035968	2	1	3	NaN	1	5	0.0440279895567065	0	1	NaN	204	4	15	1	120	220	320	NaN	520	0.21718346956186	1	1	NaN	1709242.8455279	NaN	1709243.8289101	1709244.34545313
11	19	1	0	90	36.1581920903955	36.241610738255	24	0.800054592043161	2	5	4	NaN	1	4	0.0440279895567065	0	1	NaN	205	4	16	1	120	220	320	NaN	520	0.171519569354132	2	0	NaN	1709245.3789628	NaN	1709246.3624738	1709246.87902673
11	19	1	0	90	36.1581920903955	36.241610738255	8	0.266684864014387	2	1	3	NaN	1	5	0.0440279895567065	0	1	NaN	206	4	17	1	120	220	320	NaN	520	0.504137069685385	2	0	NaN	1709247.8626825	NaN	1709248.8460741	1709249.36260583
11	19	1	0	90	36.1581920903955	36.241610738255	19	0.633376552034169	2	2	5	NaN	1	5	0.0440279895567065	0	1	NaN	207	4	18	1	120	220	320	NaN	520	0.183378969319165	1	1	NaN	1709250.6794779	NaN	1709251.6629956	1709252.17954693
11	19	1	0	90	36.1581920903955	36.241610738255	18	0.600040944032371	2	3	3	NaN	1	4	0.0440279895567065	0	1	NaN	208	4	19	1	120	220	320	NaN	520	0.427192069590092	1	1	NaN	1709253.1798485	NaN	1709254.1632547	1709254.67980033
11	19	1	0	90	36.1581920903955	36.241610738255	22	0.733383376039565	2	6	4	NaN	1	4	0.0440279895567065	0	1	NaN	209	4	20	1	120	220	320	NaN	520	0.239477472845465	1	1	NaN	1709255.9134491	NaN	1709256.8968427	1709257.43007973
11	19	1	0	90	36.1581920903955	36.241610738255	10	0.333356080017984	2	5	3	NaN	1	5	0.0440279895567065	0	1	NaN	210	4	21	1	120	220	320	NaN	520	0.261616369476542	1	1	NaN	1709258.4970061	NaN	1709259.4804372	1709259.99698613
11	19	1	0	90	36.1581920903955	36.241610738255	16	0.533369728028774	2	1	5	NaN	1	5	0.0440279895567065	0	1	NaN	211	4	22	1	120	220	320	NaN	520	3.02215886954218	2	0	NaN	1709261.0806172	NaN	1709262.0640126	1709262.58056883
11	19	1	0	90	36.1581920903955	36.241610738255	15	0.500034120026976	2	12	3	NaN	2	4	0.0440279895567065	0	1	NaN	212	4	23	1	120	220	320	NaN	520	0.424433821812272	2	1	NaN	1709266.4144946	NaN	1709267.397875	1709267.91443628
11	19	1	0	90	36.1581920903955	36.241610738255	9	0.300020472016186	2	5	3	NaN	1	4	0.0440279895567065	0	1	NaN	213	4	24	1	120	220	320	NaN	520	0.346484421752393	2	0	NaN	1709269.1480769	NaN	1709270.131483	1709270.64802938
11	19	1	0	90	36.1581920903955	36.241610738255	12	0.400027296021581	2	9	3	NaN	2	4	0.0440279895567065	0	1	NaN	214	4	25	1	120	220	320	NaN	520	0.19157526944764	2	1	NaN	1709271.815008	NaN	1709272.7984431	1709273.31495953
11	19	1	0	90	36.1581920903955	36.241610738255	13	0.433362904023379	2	2	3	NaN	1	3	0.0440279895567065	0	1	NaN	215	4	26	1	120	220	320	NaN	520	0.179117869585752	1	1	NaN	1709274.3152709	NaN	1709275.2986413	1709275.81520273
11	19	1	0	90	36.1581920903955	36.241610738255	23	0.766718984041363	2	8	6	NaN	2	4	0.0440279895567065	0	1	NaN	216	4	27	1	120	220	320	NaN	520	0.159863874549046	2	1	NaN	1709276.7988448	NaN	1709277.782233	1709278.29878823
11	19	1	0	90	36.1581920903955	36.241610738255	10	0.333356080017984	2	4	6	NaN	1	3	0.0440279895567065	0	1	NaN	217	4	28	1	120	220	320	NaN	520	0.231911369599402	1	1	NaN	1709279.5991014	NaN	1709280.5825129	1709281.09906023
11	19	1	0	90	36.1581920903955	36.241610738255	16	0.533369728028774	2	10	2	NaN	2	3	0.0440279895567065	0	1	NaN	218	4	29	1	120	220	320	NaN	520	0.610032269498333	1	0	NaN	1709282.1327317	NaN	1709283.1161028	1709283.63264183
11	19	1	0	90	36.1581920903955	36.241610738255	21	0.700047768037766	2	9	3	NaN	2	3	0.0440279895567065	0	1	NaN	219	4	30	1	120	220	320	NaN	520	1.72536236955784	1	0	NaN	1709285.049652	NaN	1709286.0330407	1709286.54959823
11	19	1	0	90	36.1581920903955	36.241610738255	23	0.766718984041363	2	12	5	NaN	2	3	0.0440279895567065	0	1	NaN	220	4	31	1	120	220	320	NaN	520	1.76365792192519	1	0	NaN	1709289.0832555	NaN	1709290.0667712	1709290.58332988
11	19	1	0	90	36.1581920903955	36.241610738255	18	0.600040944032371	2	7	4	NaN	2	4	0.0440279895567065	0	1	NaN	221	4	32	1	120	220	320	NaN	520	0.711832069559023	1	0	NaN	1709293.1671077	NaN	1709294.1505013	1709294.66705593
11	19	1	0	90	36.1581920903955	36.241610738255	14	0.466698512025177	2	8	1	NaN	2	3	0.0440279895567065	0	1	NaN	222	4	33	1	120	220	320	NaN	520	0.110498022055253	2	1	NaN	1709296.1840711	NaN	1709297.1674745	1709297.68402778
11	19	1	0	90	36.1581920903955	36.241610738255	25	0.83339020004496	2	9	6	NaN	2	3	0.0440279895567065	0	1	NaN	223	4	34	1	120	220	320	NaN	520	0.789436774561182	1	0	NaN	1709298.6176532	NaN	1709299.6010407	1709300.11759943
11	19	1	0	90	36.1581920903955	36.241610738255	17	0.566705336030573	2	3	2	NaN	1	3	0.0440279895567065	0	1	NaN	224	4	35	1	120	220	320	NaN	520	0.360647569643334	2	0	NaN	1709301.7178291	NaN	1709302.7013823	1709303.21790273
11	19	1	0	90	36.1581920903955	36.241610738255	20	0.666712160035968	2	4	6	NaN	1	4	0.0440279895567065	0	1	NaN	225	4	36	1	120	220	320	NaN	520	0.16613396955654	2	0	NaN	1709304.3847439	NaN	1709305.3682463	1709305.88483073
11	19	1	0	90	36.1581920903955	36.241610738255	16	0.533369728028774	2	5	1	NaN	1	3	0.0440279895567065	0	1	NaN	226	4	37	1	120	220	320	NaN	520	0.0104076219722629	1	1	NaN	1709306.8518862	NaN	1709307.8351957	1709308.35174408
11	19	1	0	90	36.1581920903955	36.241610738255	15	0.500034120026976	2	10	3	NaN	2	4	0.0440279895567065	0	1	NaN	227	4	38	1	120	220	320	NaN	520	0.637620969442651	1	0	NaN	1709309.1853478	NaN	1709310.1687196	1709310.68529683
11	19	1	0	90	36.1581920903955	36.241610738255	12	0.400027296021581	2	8	6	NaN	2	4	0.0440279895567065	0	1	NaN	228	4	39	1	120	220	320	NaN	520	0.311133669456467	1	0	NaN	1709312.1356321	NaN	1709313.1190543	1709313.63558713
11	19	1	0	90	36.1581920903955	36.241610738255	21	0.700047768037766	2	4	5	NaN	1	3	0.0440279895567065	0	1	NaN	229	4	40	1	120	220	320	NaN	520	0.461486921878532	1	1	NaN	1709314.76925	NaN	1709315.7526287	1709316.26919108
11	19	1	0	90	36.1581920903955	36.241610738255	12	0.400027296021581	2	2	4	NaN	1	3	0.0440279895567065	0	1	NaN	230	4	41	1	120	220	320	NaN	520	0.229864679742604	2	0	NaN	1709317.5528493	NaN	1709318.5362425	1709319.05279752
11	19	1	0	90	36.1581920903955	36.241610738255	23	0.766718984041363	2	9	6	NaN	2	3	0.0440279895567065	0	1	NaN	231	4	42	1	120	220	320	NaN	520	0.743471921887249	2	1	NaN	1709320.1029704	NaN	1709321.0864928	1709321.60304788
11	19	1	0	90	36.1581920903955	36.241610738255	14	0.466698512025177	2	5	2	NaN	1	3	0.0440279895567065	0	1	NaN	232	4	43	1	120	220	320	NaN	520	0.31700336933136	1	1	NaN	1709323.1700532	NaN	1709324.1534398	1709324.67000433
11	19	1	0	90	36.1581920903955	36.241610738255	8	0.266684864014387	2	12	1	NaN	2	5	0.0440279895567065	0	1	NaN	233	4	44	1	120	220	320	NaN	520	0.427008269587532	2	1	NaN	1709325.8036954	NaN	1709326.7870729	1709327.30360203
11	19	1	0	90	36.1581920903955	36.241610738255	24	0.800054592043161	2	6	4	NaN	1	4	0.0440279895567065	0	1	NaN	234	4	45	1	120	220	320	NaN	520	0.205445221858099	2	0	NaN	1709328.5372579	NaN	1709329.5206529	1709330.03720718
11	19	1	0	90	36.1581920903955	36.241610738255	8	0.266684864014387	2	10	5	NaN	2	4	0.0440279895567065	0	1	NaN	235	4	46	1	120	220	320	NaN	520	0.248955669580027	1	0	NaN	1709331.0541737	NaN	1709332.0375362	1709332.55411423
11	19	1	0	90	36.1581920903955	36.241610738255	14	0.466698512025177	2	10	4	NaN	2	3	0.0440279895567065	0	1	NaN	236	4	47	1	120	220	320	NaN	520	0.420587069587782	2	1	NaN	1709334.1545566	NaN	1709335.1378631	1709335.65442313
11	19	1	0	90	36.1581920903955	36.241610738255	10	0.333356080017984	2	11	3	NaN	2	4	0.0440279895567065	0	1	NaN	237	4	48	1	120	220	320	NaN	520	0.574513921979815	2	1	NaN	1709336.8880904	NaN	1709337.8714783	1709338.38803208
11	19	1	0	90	36.1581920903955	36.241610738255	24	0.800054592043161	2	4	3	NaN	1	3	0.0440279895567065	0	1	NaN	238	4	49	1	120	220	320	NaN	520	0.226981516927481	1	1	NaN	1709339.7716951	NaN	1709340.7551009	1709341.27163548
11	19	1	0	90	36.1581920903955	36.241610738255	12	0.400027296021581	2	12	5	NaN	2	5	0.0440279895567065	0	1	NaN	239	4	50	1	120	220	320	NaN	520	0.741551169427112	1	0	NaN	1709342.3052768	NaN	1709343.2886669	1709343.80522223
11	19	1	0	90	36.1581920903955	36.241610738255	14	0.466698512025177	2	11	5	NaN	2	5	0.0440279895567065	0	1	NaN	240	4	51	1	120	220	320	NaN	520	0.0990585696417838	2	1	NaN	1709345.3554633	NaN	1709346.3389793	1709346.85553153
11	19	1	0	90	36.1581920903955	36.241610738255	9	0.300020472016186	2	5	4	NaN	1	5	0.0440279895567065	0	1	NaN	241	4	52	1	120	220	320	NaN	520	0.15255806944333	1	1	NaN	1709347.822372	NaN	1709348.8058707	1709349.32243083
11	19	1	0	90	36.1581920903955	36.241610738255	25	0.83339020004496	2	5	1	NaN	1	5	0.0440279895567065	0	1	NaN	242	4	53	1	120	220	320	NaN	520	0.269211969571188	1	1	NaN	1709350.2893987	NaN	1709351.2727968	1709351.78933953
11	19	1	0	90	36.1581920903955	36.241610738255	22	0.733383376039565	2	11	6	NaN	2	5	0.0440279895567065	0	1	NaN	243	4	54	1	120	220	320	NaN	520	0.245752669638023	1	0	NaN	1709352.8728904	NaN	1709353.8563848	1709354.37293663
11	19	1	0	90	36.1581920903955	36.241610738255	24	0.800054592043161	2	7	3	NaN	2	3	0.0440279895567065	0	1	NaN	244	4	55	1	120	220	320	NaN	520	1.83886923734099	2	1	NaN	1709355.4399104	NaN	1709356.4233014	1709356.93985226
11	19	1	0	90	36.1581920903955	36.241610738255	17	0.566705336030573	2	1	5	NaN	1	3	0.0440279895567065	0	1	NaN	245	4	56	1	120	220	320	NaN	520	0.391905121970922	2	0	NaN	1709359.8069985	NaN	1709360.7904354	1709361.30695208
11	19	1	0	90	36.1581920903955	36.241610738255	23	0.766718984041363	2	1	1	NaN	1	5	0.0440279895567065	0	1	NaN	246	4	57	1	120	220	320	NaN	520	0.227383969351649	1	1	NaN	1709362.5072654	NaN	1709363.4906607	1709364.00720813
11	19	1	0	90	36.1581920903955	36.241610738255	18	0.600040944032371	2	6	1	NaN	1	3	0.0440279895567065	0	1	NaN	247	4	58	1	120	220	320	NaN	520	0.246247069444507	1	1	NaN	1709365.0408517	NaN	1709366.0243126	1709366.54078943
11	19	1	0	90	36.1581920903955	36.241610738255	10	0.333356080017984	2	9	5	NaN	2	4	0.0440279895567065	0	1	NaN	248	4	59	1	120	220	320	NaN	520	0.103193969465792	1	0	NaN	1709367.6077625	NaN	1709368.5911529	1709369.10771553
11	19	1	0	90	36.1581920903955	36.241610738255	25	0.83339020004496	2	2	5	NaN	1	3	0.0440279895567065	0	1	NaN	249	4	60	1	120	220	320	NaN	520	0.19016771693714	1	1	NaN	1709370.0246829	NaN	1709371.0080531	1709371.52460868
11	19	1	0	90	36.1581920903955	36.241610738255	10	0.333356080017984	2	12	2	NaN	2	3	0.0440279895567065	0	1	NaN	250	4	61	1	120	220	320	NaN	520	0.186200316762552	2	1	NaN	1709372.5249115	NaN	1709373.5083052	1709374.02485478
11	19	1	0	90	36.1581920903955	36.241610738255	9	0.300020472016186	2	1	6	NaN	1	3	0.0440279895567065	0	1	NaN	251	4	62	1	120	220	320	NaN	520	0.389602169627324	2	0	NaN	1709375.02515	NaN	1709376.0085563	1709376.52510123
11	19	1	0	90	36.1581920903955	36.241610738255	21	0.700047768037766	2	8	4	NaN	2	4	0.0440279895567065	0	1	NaN	252	4	63	1	120	220	320	NaN	520	0.289727122057229	2	1	NaN	1709377.7254638	NaN	1709378.7088221	1709379.22537758
11	19	1	0	90	36.1581920903955	36.241610738255	19	0.633376552034169	2	10	3	NaN	2	3	0.0440279895567065	0	1	NaN	253	5	1	1	120	220	320	NaN	520	0.364268227014691	2	1	NaN	1709412.1788193	NaN	1709413.1622084	1709413.67876327
11	19	1	0	90	36.1581920903955	36.241610738255	6	0.20001364801079	2	7	3	NaN	2	3	0.0440279895567065	0	1	NaN	254	5	2	1	120	220	320	NaN	520	0.224467842373997	1	0	NaN	1709414.8624271	NaN	1709415.8458101	1709416.36236836
11	19	1	0	90	36.1581920903955	36.241610738255	6	0.20001364801079	2	11	4	NaN	2	3	0.0440279895567065	0	1	NaN	255	5	3	1	120	220	320	NaN	520	0.530762789770961	1	0	NaN	1709417.3960082	NaN	1709418.3793919	1709418.89594081
11	19	1	0	90	36.1581920903955	36.241610738255	16	0.533369728028774	2	11	2	NaN	2	5	0.0440279895567065	0	1	NaN	256	5	4	1	120	220	320	NaN	520	0.728240069467574	2	1	NaN	1709420.4629529	NaN	1709421.446357	1709421.96290433
11	19	1	0	90	36.1581920903955	36.241610738255	0	0	1	7	2	NaN	2	3	0.0440279895567065	0	1	NaN	257	5	5	1	110	210	310	NaN	510	0.24664246966131	2	1	NaN	1709423.4966018	NaN	1709424.4800694	1709424.99653723
11	19	1	0	90	36.1581920903955	36.241610738255	9	0.300020472016186	2	10	6	NaN	2	5	0.0440279895567065	0	1	NaN	258	5	6	1	120	220	320	NaN	520	0.192326069576666	2	1	NaN	1709426.0468465	NaN	1709427.0302766	1709427.54678573
11	19	1	0	90	36.1581920903955	36.241610738255	24	0.800054592043161	2	8	4	NaN	2	5	0.0440279895567065	0	1	NaN	259	5	7	1	120	220	320	NaN	520	0.27578256954439	2	1	NaN	1709428.5470862	NaN	1709429.5304855	1709430.04703383
11	19	1	0	90	36.1581920903955	36.241610738255	14	0.466698512025177	2	11	2	NaN	2	5	0.0440279895567065	0	1	NaN	260	5	8	1	120	220	320	NaN	520	0.235893316799775	2	1	NaN	1709431.147351	NaN	1709432.1307395	1709432.64728678
11	19	1	0	90	36.1581920903955	36.241610738255	6	0.20001364801079	2	9	3	NaN	2	3	0.0440279895567065	0	1	NaN	261	5	9	1	120	220	320	NaN	520	0.229353269562125	2	1	NaN	1709433.697607	NaN	1709434.680995	1709435.19753793
11	19	1	0	90	36.1581920903955	36.241610738255	23	0.766718984041363	2	11	3	NaN	2	5	0.0440279895567065	0	1	NaN	262	5	10	1	120	220	320	NaN	520	0.23941801674664	2	1	NaN	1709436.2477139	NaN	1709437.231168	1709437.74778738
11	19	1	0	90	36.1581920903955	36.241610738255	11	0.366691688019782	2	2	2	NaN	1	4	0.0440279895567065	0	1	NaN	263	5	11	1	120	220	320	NaN	520	0.216813069535419	1	1	NaN	1709438.7981023	NaN	1709439.7814729	1709440.29804093
11	19	1	0	90	36.1581920903955	36.241610738255	19	0.633376552034169	2	10	3	NaN	2	5	0.0440279895567065	0	1	NaN	264	5	12	1	120	220	320	NaN	520	0.283334921812639	2	1	NaN	1709441.3316741	NaN	1709442.3150697	1709442.83162048
11	19	1	0	90	36.1581920903955	36.241610738255	17	0.566705336030573	2	8	4	NaN	2	4	0.0440279895567065	0	1	NaN	265	5	13	1	120	220	320	NaN	520	0.690913369413465	2	1	NaN	1709443.9318055	NaN	1709444.9153418	1709445.43188653
11	19	1	0	90	36.1581920903955	36.241610738255	24	0.800054592043161	2	3	6	NaN	1	3	0.0440279895567065	0	1	NaN	266	5	14	1	120	220	320	NaN	520	0.162618574453518	1	1	NaN	1709446.932233	NaN	1709447.9156204	1709448.43218353
11	19	1	0	90	36.1581920903955	36.241610738255	15	0.500034120026976	2	11	5	NaN	2	4	0.0440279895567065	0	1	NaN	267	5	15	1	120	220	320	NaN	520	0.263812189921737	2	1	NaN	1709449.3990173	NaN	1709450.3825344	1709450.89908361
11	19	1	0	90	36.1581920903955	36.241610738255	16	0.533369728028774	2	6	5	NaN	1	3	0.0440279895567065	0	1	NaN	268	5	16	1	120	220	320	NaN	520	6.44808986946009	1	1	NaN	1709451.9827285	NaN	1709452.9661178	1709453.48267003
11	19	1	0	90	36.1581920903955	36.241610738255	21	0.700047768037766	2	12	6	NaN	2	5	0.0440279895567065	0	1	NaN	269	5	17	1	120	220	320	NaN	520	0.241731317015365	2	1	NaN	1709460.7335961	NaN	1709461.7169632	1709462.23353608
11	19	1	0	90	36.1581920903955	36.241610738255	12	0.400027296021581	2	4	2	NaN	1	4	0.0440279895567065	0	1	NaN	270	5	18	1	120	220	320	NaN	520	0.227053242269903	1	1	NaN	1709463.2838408	NaN	1709464.2672294	1709464.78378706
11	19	1	0	90	36.1581920903955	36.241610738255	22	0.733383376039565	2	5	5	NaN	1	4	0.0440279895567065	0	1	NaN	271	5	19	1	120	220	320	NaN	520	0.916922921780497	1	1	NaN	1709465.8340882	NaN	1709466.8174983	1709467.33403398
11	19	1	0	90	36.1581920903955	36.241610738255	15	0.500034120026976	2	6	6	NaN	1	3	0.0440279895567065	0	1	NaN	272	5	20	1	120	220	320	NaN	520	0.355050664395094	1	1	NaN	1709469.0677373	NaN	1709470.0511338	1709470.56768154
11	19	1	0	90	36.1581920903955	36.241610738255	0	0	1	4	1	NaN	1	4	0.0440279895567065	0	1	NaN	273	5	21	1	110	210	310	NaN	510	0.256177069619298	2	0	NaN	1709471.7347609	NaN	1709472.7180781	1709473.23461863
11	19	1	0	90	36.1581920903955	36.241610738255	8	0.266684864014387	2	2	5	NaN	1	3	0.0440279895567065	0	1	NaN	274	5	22	1	120	220	320	NaN	520	0.617263116873801	2	0	NaN	1709474.3015603	NaN	1709475.2849871	1709475.80152958
11	19	1	0	90	36.1581920903955	36.241610738255	14	0.466698512025177	2	10	4	NaN	2	3	0.0440279895567065	0	1	NaN	275	5	23	1	120	220	320	NaN	520	0.963750869501382	2	1	NaN	1709477.2352126	NaN	1709478.2186219	1709478.73515473
11	19	1	0	90	36.1581920903955	36.241610738255	21	0.700047768037766	2	5	2	NaN	1	3	0.0440279895567065	0	1	NaN	276	5	24	1	120	220	320	NaN	520	1.11199198965915	2	0	NaN	1709480.5188609	NaN	1709481.5022519	1709482.01880841
11	19	1	0	90	36.1581920903955	36.241610738255	20	0.666712160035968	2	8	3	NaN	2	3	0.0440279895567065	0	1	NaN	277	5	25	1	120	220	320	NaN	520	0.590382669353858	1	0	NaN	1709483.9525257	NaN	1709484.9359749	1709485.45247633
11	19	1	0	90	36.1581920903955	36.241610738255	21	0.700047768037766	2	2	2	NaN	1	4	0.0440279895567065	0	1	NaN	278	5	26	1	120	220	320	NaN	520	0.162413117010146	1	1	NaN	1709486.8528445	NaN	1709487.8362392	1709488.35276348
11	19	1	0	90	36.1581920903955	36.241610738255	23	0.766718984041363	2	4	1	NaN	1	4	0.0440279895567065	0	1	NaN	279	5	27	1	120	220	320	NaN	520	0.230811669491231	1	1	NaN	1709489.336394	NaN	1709490.3198001	1709490.83634343
11	19	1	0	90	36.1581920903955	36.241610738255	17	0.566705336030573	2	10	6	NaN	2	4	0.0440279895567065	0	1	NaN	280	5	28	1	120	220	320	NaN	520	0.973012374481186	1	0	NaN	1709492.1698844	NaN	1709493.1534067	1709493.66995203
11	19	1	0	90	36.1581920903955	36.241610738255	22	0.733383376039565	2	1	4	NaN	1	5	0.0440279895567065	0	1	NaN	281	5	29	1	120	220	320	NaN	520	0.225686174584553	2	0	NaN	1709495.4536794	NaN	1709496.4370654	1709496.95361693
11	19	1	0	90	36.1581920903955	36.241610738255	13	0.433362904023379	2	5	4	NaN	1	4	0.0440279895567065	0	1	NaN	282	5	30	1	120	220	320	NaN	520	0.140122869517654	1	1	NaN	1709497.987099	NaN	1709498.9706281	1709499.48718623
11	19	1	0	90	36.1581920903955	36.241610738255	20	0.666712160035968	2	11	5	NaN	2	5	0.0440279895567065	0	1	NaN	283	5	31	1	120	220	320	NaN	520	0.0814606696367264	1	0	NaN	1709500.4374223	NaN	1709501.4208884	1709501.93743323
11	19	1	0	90	36.1581920903955	36.241610738255	18	0.600040944032371	2	4	4	NaN	1	3	0.0440279895567065	0	1	NaN	284	5	32	1	120	220	320	NaN	520	0.449241764377803	2	0	NaN	1709502.8377219	NaN	1709503.8211175	1709504.33766194
11	19	1	0	90	36.1581920903955	36.241610738255	23	0.766718984041363	2	12	6	NaN	2	3	0.0440279895567065	0	1	NaN	285	5	33	1	120	220	320	NaN	520	0.154563289834186	1	0	NaN	1709505.6046666	NaN	1709506.5880568	1709507.10460841
11	19	1	0	90	36.1581920903955	36.241610738255	8	0.266684864014387	2	5	5	NaN	1	5	0.0440279895567065	0	1	NaN	286	5	34	1	120	220	320	NaN	520	0.431752721779048	2	0	NaN	1709508.0715734	NaN	1709509.0549622	1709509.57152478
11	19	1	0	90	36.1581920903955	36.241610738255	7	0.233349256012589	2	5	4	NaN	1	4	0.0440279895567065	0	1	NaN	287	5	35	1	120	220	320	NaN	520	0.12115046964027	1	1	NaN	1709510.8218621	NaN	1709511.8052426	1709512.32178383
11	19	1	0	90	36.1581920903955	36.241610738255	18	0.600040944032371	2	9	5	NaN	2	5	0.0440279895567065	0	1	NaN	288	5	36	1	120	220	320	NaN	520	0.231429842300713	2	1	NaN	1709513.2553082	NaN	1709514.2388055	1709514.75536326
11	19	1	0	90	36.1581920903955	36.241610738255	18	0.600040944032371	2	1	4	NaN	1	4	0.0440279895567065	0	1	NaN	289	5	37	1	120	220	320	NaN	520	0.361707369564101	2	0	NaN	1709515.8056682	NaN	1709516.7890683	1709517.30561103
11	19	1	0	90	36.1581920903955	36.241610738255	7	0.233349256012589	2	3	2	NaN	1	3	0.0440279895567065	0	1	NaN	290	5	38	1	120	220	320	NaN	520	0.222718921955675	1	1	NaN	1709518.4724767	NaN	1709519.4559801	1709519.97254518
11	19	1	0	90	36.1581920903955	36.241610738255	0	0	1	5	3	NaN	1	3	0.0440279895567065	0	1	NaN	291	5	39	1	110	210	310	NaN	510	0.281172484857962	1	1	NaN	1709521.0061964	NaN	1709521.9895639	1709522.50612762
11	19	1	0	90	36.1581920903955	36.241610738255	11	0.366691688019782	2	6	6	NaN	1	3	0.0440279895567065	0	1	NaN	292	5	40	1	120	220	320	NaN	520	0.424482869450003	1	1	NaN	1709523.6064368	NaN	1709524.589815	1709525.10637203
11	19	1	0	90	36.1581920903955	36.241610738255	15	0.500034120026976	2	4	6	NaN	1	4	0.0440279895567065	0	1	NaN	293	5	41	1	120	220	320	NaN	520	0.155356869567186	1	1	NaN	1709526.3400401	NaN	1709527.3234305	1709527.83997633
11	19	1	0	90	36.1581920903955	36.241610738255	7	0.233349256012589	2	9	5	NaN	2	3	0.0440279895567065	0	1	NaN	294	5	42	1	120	220	320	NaN	520	0.640245364280418	2	1	NaN	1709528.806939	NaN	1709529.790338	1709530.30688814
11	19	1	0	90	36.1581920903955	36.241610738255	20	0.666712160035968	2	4	4	NaN	1	4	0.0440279895567065	0	1	NaN	295	5	43	1	120	220	320	NaN	520	0.193651521811262	1	1	NaN	1709531.7572263	NaN	1709532.7406302	1709533.25718438
11	19	1	0	90	36.1581920903955	36.241610738255	8	0.266684864014387	2	4	1	NaN	1	5	0.0440279895567065	0	1	NaN	296	5	44	1	120	220	320	NaN	520	0.245865769451484	1	1	NaN	1709534.2574749	NaN	1709535.240876	1709535.75741953
11	19	1	0	90	36.1581920903955	36.241610738255	23	0.766718984041363	2	5	6	NaN	1	5	0.0440279895567065	0	1	NaN	297	5	45	1	120	220	320	NaN	520	0.511593169532716	1	1	NaN	1709536.8077146	NaN	1709537.791126	1709538.30767953
11	19	1	0	90	36.1581920903955	36.241610738255	21	0.700047768037766	2	6	2	NaN	1	5	0.0440279895567065	0	1	NaN	298	5	46	1	120	220	320	NaN	520	0.605927069438621	1	1	NaN	1709539.641339	NaN	1709540.624737	1709541.14128153
11	19	1	0	90	36.1581920903955	36.241610738255	10	0.333356080017984	2	3	1	NaN	1	5	0.0440279895567065	0	1	NaN	299	5	47	1	120	220	320	NaN	520	0.584855969529599	1	1	NaN	1709542.558299	NaN	1709543.5416972	1709544.05823343
11	19	1	0	90	36.1581920903955	36.241610738255	0	0	1	6	2	NaN	1	3	0.0440279895567065	0	1	NaN	300	5	48	1	110	210	310	NaN	510	1.22049672179855	1	1	NaN	1709545.4585759	NaN	1709546.4419471	1709546.95853128
11	19	1	0	90	36.1581920903955	36.241610738255	6	0.20001364801079	2	9	1	NaN	2	4	0.0440279895567065	0	1	NaN	301	5	49	1	120	220	320	NaN	520	0.342823369661346	2	1	NaN	1709548.9922887	NaN	1709549.9756508	1709550.49220473
11	19	1	0	90	36.1581920903955	36.241610738255	20	0.666712160035968	2	9	2	NaN	2	3	0.0440279895567065	0	1	NaN	302	5	50	1	120	220	320	NaN	520	0.260542921721935	1	0	NaN	1709551.6425223	NaN	1709552.6258895	1709553.14246858
11	19	1	0	90	36.1581920903955	36.241610738255	24	0.800054592043161	2	12	3	NaN	2	4	0.0440279895567065	0	1	NaN	303	5	51	1	120	220	320	NaN	520	0.108998669544235	1	0	NaN	1709554.2261157	NaN	1709555.2096132	1709555.72604723
11	19	1	0	90	36.1581920903955	36.241610738255	25	0.83339020004496	2	3	6	NaN	1	3	0.0440279895567065	0	1	NaN	304	5	52	1	120	220	320	NaN	520	0.1718244694639	1	1	NaN	1709556.6430128	NaN	1709557.6263869	1709558.14295753
11	19	1	0	90	36.1581920903955	36.241610738255	24	0.800054592043161	2	5	3	NaN	1	4	0.0440279895567065	0	1	NaN	305	5	53	1	120	220	320	NaN	520	0.34434516960755	1	1	NaN	1709559.126573	NaN	1709560.1099705	1709560.62652723
11	19	1	0	90	36.1581920903955	36.241610738255	25	0.83339020004496	2	12	2	NaN	2	5	0.0440279895567065	0	1	NaN	306	5	54	1	120	220	320	NaN	520	0.5895837219432	1	0	NaN	1709561.7933882	NaN	1709562.7769108	1709563.29346288
11	19	1	0	90	36.1581920903955	36.241610738255	14	0.466698512025177	2	3	4	NaN	1	3	0.0440279895567065	0	1	NaN	307	5	55	1	120	220	320	NaN	520	0.441984222037718	1	1	NaN	1709565.2771775	NaN	1709566.2605847	1709566.77713898
11	19	1	0	90	36.1581920903955	36.241610738255	11	0.366691688019782	2	10	5	NaN	2	5	0.0440279895567065	0	1	NaN	308	5	56	1	120	220	320	NaN	520	0.707893569488078	1	0	NaN	1709568.0274773	NaN	1709569.0108511	1709569.52741013
11	19	1	0	90	36.1581920903955	36.241610738255	20	0.666712160035968	2	1	5	NaN	1	4	0.0440279895567065	0	1	NaN	309	5	57	1	120	220	320	NaN	520	0.514783816877753	2	0	NaN	1709571.0444266	NaN	1709572.0278122	1709572.54437668
11	19	1	0	90	36.1581920903955	36.241610738255	13	0.433362904023379	2	10	1	NaN	2	3	0.0440279895567065	0	1	NaN	310	5	58	1	120	220	320	NaN	520	0.169418369419873	2	1	NaN	1709573.8779113	NaN	1709574.8614046	1709575.37797953
11	19	1	0	90	36.1581920903955	36.241610738255	18	0.600040944032371	2	12	2	NaN	2	4	0.0440279895567065	0	1	NaN	311	5	59	1	120	220	320	NaN	520	0.189760821871459	2	1	NaN	1709576.3616138	NaN	1709577.3450075	1709577.86156408
11	19	1	0	90	36.1581920903955	36.241610738255	22	0.733383376039565	2	3	5	NaN	1	5	0.0440279895567065	0	1	NaN	312	5	60	1	120	220	320	NaN	520	0.377142869401723	1	1	NaN	1709578.8618576	NaN	1709579.8452561	1709580.36180433
11	19	1	0	90	36.1581920903955	36.241610738255	7	0.233349256012589	2	2	6	NaN	1	3	0.0440279895567065	0	1	NaN	313	5	61	1	120	220	320	NaN	520	0.757968259276822	1	1	NaN	1709581.5454121	NaN	1709582.5288481	1709583.04539634
11	19	1	0	90	36.1581920903955	36.241610738255	16	0.533369728028774	2	7	3	NaN	2	4	0.0440279895567065	0	1	NaN	314	5	62	1	120	220	320	NaN	520	0.809949121903628	1	0	NaN	1709584.6290889	NaN	1709585.6124924	1709586.12904498
11	19	1	0	90	36.1581920903955	36.241610738255	16	0.533369728028774	2	9	4	NaN	2	4	0.0440279895567065	0	1	NaN	315	5	63	1	120	220	320	NaN	520	0.660797769436613	2	1	NaN	1709587.7626073	NaN	1709588.746034	1709589.26268293
11	19	1	0	90	36.1581920903955	36.241610738255	17	0.566705336030573	2	3	2	NaN	1	3	0.0440279895567065	0	1	NaN	316	6	1	1	120	220	320	NaN	520	0.735061969375238	1	1	NaN	1709694.2564947	NaN	1709695.2399747	1709695.75647973
11	19	1	0	90	36.1581920903955	36.241610738255	13	0.433362904023379	2	10	5	NaN	2	4	0.0440279895567065	0	1	NaN	317	6	2	1	120	220	320	NaN	520	0.204475722042844	2	1	NaN	1709697.3068224	NaN	1709698.2902597	1709698.80678388
11	19	1	0	90	36.1581920903955	36.241610738255	18	0.600040944032371	2	10	6	NaN	2	4	0.0440279895567065	0	1	NaN	318	6	3	1	120	220	320	NaN	520	0.662845469545573	1	0	NaN	1709699.840421	NaN	1709700.8238308	1709701.34035813
11	19	1	0	90	36.1581920903955	36.241610738255	17	0.566705336030573	2	10	1	NaN	2	3	0.0440279895567065	0	1	NaN	319	6	4	1	120	220	320	NaN	520	0.383611469529569	2	1	NaN	1709702.8239269	NaN	1709703.8074331	1709704.32398593
11	19	1	0	90	36.1581920903955	36.241610738255	10	0.333356080017984	2	10	3	NaN	2	5	0.0440279895567065	0	1	NaN	320	6	5	1	120	220	320	NaN	520	0.474292416824028	2	1	NaN	1709705.5410192	NaN	1709706.5244151	1709707.04092088
11	19	1	0	90	36.1581920903955	36.241610738255	20	0.666712160035968	2	5	6	NaN	1	5	0.0440279895567065	0	1	NaN	321	6	6	1	120	220	320	NaN	520	0.258401221828535	1	1	NaN	1709708.3412567	NaN	1709709.324681	1709709.84120088
11	19	1	0	90	36.1581920903955	36.241610738255	24	0.800054592043161	2	10	4	NaN	2	5	0.0440279895567065	0	1	NaN	322	6	7	1	120	220	320	NaN	520	0.178457769565284	1	0	NaN	1709710.9247234	NaN	1709711.9083179	1709712.42480583
11	19	1	0	90	36.1581920903955	36.241610738255	6	0.20001364801079	2	12	6	NaN	2	3	0.0440279895567065	0	1	NaN	323	6	8	1	120	220	320	NaN	520	0.222203369485214	2	1	NaN	1709713.4250656	NaN	1709714.4084958	1709714.92502253
11	19	1	0	90	36.1581920903955	36.241610738255	11	0.366691688019782	2	1	5	NaN	1	3	0.0440279895567065	0	1	NaN	324	6	9	1	120	220	320	NaN	520	1.37634286936373	1	1	NaN	1709715.975346	NaN	1709716.9587501	1709717.47527503
11	19	1	0	90	36.1581920903955	36.241610738255	12	0.400027296021581	2	2	5	NaN	1	3	0.0440279895567065	0	1	NaN	325	6	10	1	120	220	320	NaN	520	0.483559869462624	1	1	NaN	1709719.6757009	NaN	1709720.6590869	1709721.17565553
11	19	1	0	90	36.1581920903955	36.241610738255	0	0	1	1	2	NaN	1	5	0.0440279895567065	0	1	NaN	326	6	11	1	110	210	310	NaN	510	0.93066409509629	1	1	NaN	1709722.4926483	NaN	1709723.4760433	1709723.9925913
11	19	1	0	90	36.1581920903955	36.241610738255	12	0.400027296021581	2	8	1	NaN	2	3	0.0440279895567065	0	1	NaN	327	6	12	1	120	220	320	NaN	520	0.720499974675477	1	0	NaN	1709725.7429838	NaN	1709726.726396	1709727.24290763
11	19	1	0	90	36.1581920903955	36.241610738255	24	0.800054592043161	2	8	2	NaN	2	3	0.0440279895567065	0	1	NaN	328	6	13	1	120	220	320	NaN	520	0.166816469514742	2	1	NaN	1709728.7766052	NaN	1709729.7600075	1709730.27655203
11	19	1	0	90	36.1581920903955	36.241610738255	9	0.300020472016186	2	12	6	NaN	2	3	0.0440279895567065	0	1	NaN	329	6	14	1	120	220	320	NaN	520	0.771160021889955	1	0	NaN	1709731.260185	NaN	1709732.2435851	1709732.76010938
11	19	1	0	90	36.1581920903955	36.241610738255	18	0.600040944032371	2	3	5	NaN	1	4	0.0440279895567065	0	1	NaN	330	6	15	1	120	220	320	NaN	520	0.0787789220921695	1	1	NaN	1709734.3603357	NaN	1709735.3438775	1709735.86041688
11	19	1	0	90	36.1581920903955	36.241610738255	6	0.20001364801079	2	6	5	NaN	1	5	0.0440279895567065	0	1	NaN	331	6	16	1	120	220	320	NaN	520	0.246885574422777	1	1	NaN	1709736.7607231	NaN	1709737.7441167	1709738.26065783
11	19	1	0	90	36.1581920903955	36.241610738255	9	0.300020472016186	2	6	3	NaN	1	4	0.0440279895567065	0	1	NaN	332	6	17	1	120	220	320	NaN	520	0.224409469403327	1	1	NaN	1709739.3110064	NaN	1709740.2943877	1709740.81090413
11	19	1	0	90	36.1581920903955	36.241610738255	21	0.700047768037766	2	7	6	NaN	2	4	0.0440279895567065	0	1	NaN	333	6	18	1	120	220	320	NaN	520	0.194774569710717	1	0	NaN	1709741.8445592	NaN	1709742.8279474	1709743.34448273
11	19	1	0	90	36.1581920903955	36.241610738255	24	0.800054592043161	2	3	5	NaN	1	3	0.0440279895567065	0	1	NaN	334	6	19	1	120	220	320	NaN	520	0.246092721819878	1	1	NaN	1709744.3614677	NaN	1709745.3448586	1709745.86140498
11	19	1	0	90	36.1581920903955	36.241610738255	12	0.400027296021581	2	3	1	NaN	1	4	0.0440279895567065	0	1	NaN	335	6	20	1	120	220	320	NaN	520	0.254983821883798	1	1	NaN	1709746.9283693	NaN	1709747.9117829	1709748.42832838
11	19	1	0	90	36.1581920903955	36.241610738255	7	0.233349256012589	2	6	3	NaN	1	3	0.0440279895567065	0	1	NaN	336	6	21	1	120	220	320	NaN	520	0.199883021879941	1	1	NaN	1709749.4951775	NaN	1709750.4786989	1709750.99524268
11	19	1	0	90	36.1581920903955	36.241610738255	7	0.233349256012589	2	12	3	NaN	2	3	0.0440279895567065	0	1	NaN	337	6	22	1	120	220	320	NaN	520	0.259126916760579	2	1	NaN	1709752.012218	NaN	1709752.9956133	1709753.51215678
11	19	1	0	90	36.1581920903955	36.241610738255	21	0.700047768037766	2	1	4	NaN	1	4	0.0440279895567065	0	1	NaN	338	6	23	1	120	220	320	NaN	520	0.164571669418365	1	1	NaN	1709754.579167	NaN	1709755.5626352	1709756.07907013
11	19	1	0	90	36.1581920903955	36.241610738255	14	0.466698512025177	2	12	1	NaN	2	3	0.0440279895567065	0	1	NaN	339	6	24	1	120	220	320	NaN	520	0.176675869617611	1	0	NaN	1709757.0627216	NaN	1709758.046117	1709758.56264803
11	19	1	0	90	36.1581920903955	36.241610738255	10	0.333356080017984	2	6	5	NaN	1	3	0.0440279895567065	0	1	NaN	340	6	25	1	120	220	320	NaN	520	0.324643021915108	1	1	NaN	1709759.5628383	NaN	1709760.5463806	1709761.06289838
11	19	1	0	90	36.1581920903955	36.241610738255	19	0.633376552034169	2	9	2	NaN	2	3	0.0440279895567065	0	1	NaN	341	6	26	1	120	220	320	NaN	520	0.154231364140287	1	0	NaN	1709762.2132385	NaN	1709763.1966287	1709763.71315974
11	19	1	0	90	36.1581920903955	36.241610738255	25	0.83339020004496	2	12	3	NaN	2	4	0.0440279895567065	0	1	NaN	342	6	27	1	120	220	320	NaN	520	0.110768221784383	1	0	NaN	1709764.6966685	NaN	1709765.6801888	1709766.19672848
11	19	1	0	90	36.1581920903955	36.241610738255	25	0.83339020004496	2	1	2	NaN	1	5	0.0440279895567065	0	1	NaN	343	6	28	1	120	220	320	NaN	520	0.261318264296278	1	1	NaN	1709767.1303743	NaN	1709768.1137633	1709768.63031194
11	19	1	0	90	36.1581920903955	36.241610738255	17	0.566705336030573	2	12	4	NaN	2	5	0.0440279895567065	0	1	NaN	344	6	29	1	120	220	320	NaN	520	0.0104702694807202	1	0	NaN	1709769.7139646	NaN	1709770.6973397	1709771.21389753
11	19	1	0	90	36.1581920903955	36.241610738255	15	0.500034120026976	2	6	1	NaN	1	5	0.0440279895567065	0	1	NaN	345	6	30	1	120	220	320	NaN	520	0.184089384740219	1	1	NaN	1709772.0473956	NaN	1709773.0309273	1709773.54746622
11	19	1	0	90	36.1581920903955	36.241610738255	9	0.300020472016186	2	10	2	NaN	2	5	0.0440279895567065	0	1	NaN	346	6	31	1	120	220	320	NaN	520	0.0596149167977273	1	0	NaN	1709774.5476962	NaN	1709775.531197	1709776.04769888
11	19	1	0	90	36.1581920903955	36.241610738255	23	0.766718984041363	2	7	3	NaN	2	5	0.0440279895567065	0	1	NaN	347	6	32	1	120	220	320	NaN	520	0.587957669515163	2	1	NaN	1709776.9313531	NaN	1709777.9147496	1709778.43126263
11	19	1	0	90	36.1581920903955	36.241610738255	19	0.633376552034169	2	6	1	NaN	1	3	0.0440279895567065	0	1	NaN	348	6	33	1	120	220	320	NaN	520	0.0950725695583969	1	1	NaN	1709779.8482782	NaN	1709780.8316573	1709781.34822113
11	19	1	0	90	36.1581920903955	36.241610738255	21	0.700047768037766	2	3	1	NaN	1	4	0.0440279895567065	0	1	NaN	349	6	34	1	120	220	320	NaN	520	0.350201569497585	1	1	NaN	1709782.2651957	NaN	1709783.2485694	1709783.76512743
11	19	1	0	90	36.1581920903955	36.241610738255	8	0.266684864014387	2	12	4	NaN	2	5	0.0440279895567065	0	1	NaN	350	6	35	1	120	220	320	NaN	520	0.203425069572404	1	0	NaN	1709784.9321191	NaN	1709785.9155282	1709786.43205613
11	19	1	0	90	36.1581920903955	36.241610738255	18	0.600040944032371	2	6	5	NaN	1	4	0.0440279895567065	0	1	NaN	351	6	36	1	120	220	320	NaN	520	0.190385937457904	1	1	NaN	1709787.4490338	NaN	1709788.4324587	1709788.94897416
11	19	1	0	90	36.1581920903955	36.241610738255	14	0.466698512025177	2	9	2	NaN	2	4	0.0440279895567065	0	1	NaN	352	6	37	1	120	220	320	NaN	520	0.0413252220023423	2	1	NaN	1709789.965953	NaN	1709790.9493726	1709791.46589098
11	19	1	0	90	36.1581920903955	36.241610738255	13	0.433362904023379	2	8	2	NaN	2	4	0.0440279895567065	0	1	NaN	353	6	38	1	120	220	320	NaN	520	0.195487516932189	2	1	NaN	1709792.3161895	NaN	1709793.2995795	1709793.81611798
11	19	1	0	90	36.1581920903955	36.241610738255	19	0.633376552034169	2	5	6	NaN	1	4	0.0440279895567065	0	1	NaN	354	6	39	1	120	220	320	NaN	520	0.190495221875608	1	1	NaN	1709794.8330579	NaN	1709795.8164481	1709796.33303328
11	19	1	0	90	36.1581920903955	36.241610738255	25	0.83339020004496	2	4	6	NaN	1	5	0.0440279895567065	0	1	NaN	355	6	40	1	120	220	320	NaN	520	0.602282569510862	2	0	NaN	1709797.3332894	NaN	1709798.3167182	1709798.83326713
11	19	1	0	90	36.1581920903955	36.241610738255	7	0.233349256012589	2	6	1	NaN	1	3	0.0440279895567065	0	1	NaN	356	6	41	1	120	220	320	NaN	520	0.420483816880733	1	1	NaN	1709800.2669578	NaN	1709801.2503811	1709801.76689318
11	19	1	0	90	36.1581920903955	36.241610738255	18	0.600040944032371	2	9	4	NaN	2	3	0.0440279895567065	0	1	NaN	357	6	42	1	120	220	320	NaN	520	0.983159564202651	2	1	NaN	1709803.000425	NaN	1709803.983943	1709804.50049294
11	19	1	0	90	36.1581920903955	36.241610738255	25	0.83339020004496	2	4	3	NaN	1	5	0.0440279895567065	0	1	NaN	358	6	43	1	120	220	320	NaN	520	0.36202686955221	1	1	NaN	1709806.7175483	NaN	1709807.7009992	1709808.21752143
11	19	1	0	90	36.1581920903955	36.241610738255	16	0.533369728028774	2	4	5	NaN	1	4	0.0440279895567065	0	1	NaN	359	6	44	1	120	220	320	NaN	520	0.228976221987978	1	1	NaN	1709809.4345271	NaN	1709810.4179455	1709810.93445698
11	19	1	0	90	36.1581920903955	36.241610738255	15	0.500034120026976	2	2	6	NaN	1	3	0.0440279895567065	0	1	NaN	360	6	45	1	120	220	320	NaN	520	0.383301937486976	1	1	NaN	1709811.9847848	NaN	1709812.9681635	1709813.48471156
11	19	1	0	90	36.1581920903955	36.241610738255	23	0.766718984041363	2	1	5	NaN	1	5	0.0440279895567065	0	1	NaN	361	6	46	1	120	220	320	NaN	520	0.634135774336755	1	1	NaN	1709814.7017189	NaN	1709815.6851202	1709816.20164943
11	19	1	0	90	36.1581920903955	36.241610738255	11	0.366691688019782	2	4	2	NaN	1	5	0.0440279895567065	0	1	NaN	362	6	47	1	120	220	320	NaN	520	0.627453737426549	1	1	NaN	1709817.6518754	NaN	1709818.6354083	1709819.15194086
11	19	1	0	90	36.1581920903955	36.241610738255	16	0.533369728028774	2	4	3	NaN	1	5	0.0440279895567065	0	1	NaN	363	6	48	1	120	220	320	NaN	520	0.469564189901575	1	1	NaN	1709820.6022625	NaN	1709821.5856814	1709822.10222991
11	19	1	0	90	36.1581920903955	36.241610738255	8	0.266684864014387	2	6	4	NaN	1	5	0.0440279895567065	0	1	NaN	364	6	49	1	120	220	320	NaN	520	0.213077374501154	1	1	NaN	1709823.4025492	NaN	1709824.3859427	1709824.90250943
11	19	1	0	90	36.1581920903955	36.241610738255	15	0.500034120026976	2	8	5	NaN	2	3	0.0440279895567065	0	1	NaN	365	6	50	1	120	220	320	NaN	520	1.23935586959124	2	1	NaN	1709825.9361311	NaN	1709826.9195167	1709827.43607713
11	19	1	0	90	36.1581920903955	36.241610738255	17	0.566705336030573	2	4	3	NaN	1	5	0.0440279895567065	0	1	NaN	366	6	51	1	120	220	320	NaN	520	0.272470969473943	1	1	NaN	1709829.5031653	NaN	1709830.4864603	1709831.00309553
11	19	1	0	90	36.1581920903955	36.241610738255	20	0.666712160035968	2	2	3	NaN	1	4	0.0440279895567065	0	1	NaN	367	6	52	1	120	220	320	NaN	520	0.440363822039217	1	1	NaN	1709832.1034053	NaN	1709833.0867235	1709833.60336578
11	19	1	0	90	36.1581920903955	36.241610738255	0	0	1	6	4	NaN	1	3	0.0440279895567065	0	1	NaN	368	6	53	1	110	210	310	NaN	510	0.105228332336992	1	1	NaN	1709834.8703669	NaN	1709835.8537544	1709836.37030677
11	19	1	0	90	36.1581920903955	36.241610738255	9	0.300020472016186	2	7	3	NaN	2	3	0.0440279895567065	0	1	NaN	369	6	54	1	120	220	320	NaN	520	0.159531137440354	2	1	NaN	1709837.3037819	NaN	1709838.2873704	1709838.80386736
11	19	1	0	90	36.1581920903955	36.241610738255	24	0.800054592043161	2	11	6	NaN	2	3	0.0440279895567065	0	1	NaN	370	6	55	1	120	220	320	NaN	520	2.25127801694907	1	0	NaN	1709840.2041751	NaN	1709841.1876045	1709841.70415348
11	19	1	0	90	36.1581920903955	36.241610738255	21	0.700047768037766	2	1	2	NaN	1	5	0.0440279895567065	0	1	NaN	371	6	56	1	120	220	320	NaN	520	0.436053516808897	2	0	NaN	1709844.7713204	NaN	1709845.7547033	1709846.27127038
11	19	1	0	90	36.1581920903955	36.241610738255	11	0.366691688019782	2	9	1	NaN	2	4	0.0440279895567065	0	1	NaN	372	6	57	1	120	220	320	NaN	520	0.181185189867392	2	1	NaN	1709847.9382339	NaN	1709848.9218346	1709849.43825641
11	19	1	0	90	36.1581920903955	36.241610738255	0	0	1	9	3	NaN	2	3	0.0440279895567065	0	1	NaN	373	6	58	1	110	210	310	NaN	510	0.0350962218362838	2	1	NaN	1709850.5885282	NaN	1709851.5719504	1709852.08850388
11	19	1	0	90	36.1581920903955	36.241610738255	12	0.400027296021581	2	6	3	NaN	1	5	0.0440279895567065	0	1	NaN	374	6	59	1	120	220	320	NaN	520	0.068672516848892	1	1	NaN	1709852.938801	NaN	1709853.9221916	1709854.43873158
11	19	1	0	90	36.1581920903955	36.241610738255	20	0.666712160035968	2	6	3	NaN	1	4	0.0440279895567065	0	1	NaN	375	6	60	1	120	220	320	NaN	520	0.0933168169576675	1	1	NaN	1709855.3223682	NaN	1709856.3057798	1709856.82230348
11	19	1	0	90	36.1581920903955	36.241610738255	20	0.666712160035968	2	10	2	NaN	2	3	0.0440279895567065	0	1	NaN	376	6	61	1	120	220	320	NaN	520	0.01039362186566	1	0	NaN	1709857.7392711	NaN	1709858.7226663	1709859.23921488
11	19	1	0	90	36.1581920903955	36.241610738255	18	0.600040944032371	2	8	2	NaN	2	5	0.0440279895567065	0	1	NaN	377	6	62	1	120	220	320	NaN	520	0.134652622044086	2	1	NaN	1709860.072832	NaN	1709861.0562464	1709861.57277628
11	19	1	0	90	36.1581920903955	36.241610738255	25	0.83339020004496	2	5	1	NaN	1	4	0.0440279895567065	0	1	NaN	378	6	63	1	120	220	320	NaN	520	0.33247326943092	1	1	NaN	1709862.5230556	NaN	1709863.5064736	1709864.02300343
11	19	1	0	90	36.1581920903955	36.241610738255	8	0.266684864014387	2	6	3	NaN	1	3	0.0440279895567065	0	1	NaN	379	7	1	1	120	220	320	NaN	520	0.235489521874115	1	1	NaN	1709906.444021	NaN	1709907.4274399	1709907.94399328
11	19	1	0	90	36.1581920903955	36.241610738255	14	0.466698512025177	2	4	1	NaN	1	5	0.0440279895567065	0	1	NaN	380	7	2	1	120	220	320	NaN	520	0.189285164233297	1	1	NaN	1709908.9942924	NaN	1709909.977709	1709910.49424444
11	19	1	0	90	36.1581920903955	36.241610738255	20	0.666712160035968	2	9	6	NaN	2	5	0.0440279895567065	0	1	NaN	381	7	3	1	120	220	320	NaN	520	0.288695269497111	1	0	NaN	1709911.5112142	NaN	1709912.4946385	1709913.01116303
11	19	1	0	90	36.1581920903955	36.241610738255	16	0.533369728028774	2	10	2	NaN	2	3	0.0440279895567065	0	1	NaN	382	7	4	1	120	220	320	NaN	520	0.260986569570377	1	0	NaN	1709914.3948021	NaN	1709915.3782216	1709915.89477623
11	19	1	0	90	36.1581920903955	36.241610738255	8	0.266684864014387	2	3	6	NaN	1	5	0.0440279895567065	0	1	NaN	383	7	5	1	120	220	320	NaN	520	0.27889786940068	1	1	NaN	1709917.1449438	NaN	1709918.1284891	1709918.64503963
11	19	1	0	90	36.1581920903955	36.241610738255	16	0.533369728028774	2	3	6	NaN	1	3	0.0440279895567065	0	1	NaN	384	7	6	1	120	220	320	NaN	520	0.102191969519481	2	0	NaN	1709919.7453687	NaN	1709920.7287608	1709921.24529093
11	19	1	0	90	36.1581920903955	36.241610738255	20	0.666712160035968	2	12	2	NaN	2	5	0.0440279895567065	0	1	NaN	385	7	7	1	120	220	320	NaN	520	0.0535654744599015	1	0	NaN	1709922.162254	NaN	1709923.1456579	1709923.66222093
11	19	1	0	90	36.1581920903955	36.241610738255	11	0.366691688019782	2	7	1	NaN	2	3	0.0440279895567065	0	1	NaN	386	7	8	1	120	220	320	NaN	520	0.454536389559507	2	1	NaN	1709924.5290533	NaN	1709925.5125525	1709926.02910551
11	19	1	0	90	36.1581920903955	36.241610738255	18	0.600040944032371	2	1	6	NaN	1	3	0.0440279895567065	0	1	NaN	387	7	9	1	120	220	320	NaN	520	0.0626852798741311	2	0	NaN	1709927.3127514	NaN	1709928.2961748	1709928.81271752
11	19	1	0	90	36.1581920903955	36.241610738255	14	0.466698512025177	2	6	1	NaN	1	5	0.0440279895567065	0	1	NaN	388	7	10	1	120	220	320	NaN	520	0.119317569537088	2	0	NaN	1709929.6962673	NaN	1709930.6797487	1709931.19628183
11	19	1	0	90	36.1581920903955	36.241610738255	24	0.800054592043161	2	11	5	NaN	2	5	0.0440279895567065	0	1	NaN	389	7	11	1	120	220	320	NaN	520	0.0450614220462739	1	0	NaN	1709932.1465788	NaN	1709933.1299834	1709933.64651778
11	19	1	0	90	36.1581920903955	36.241610738255	15	0.500034120026976	2	1	1	NaN	1	4	0.0440279895567065	0	1	NaN	390	7	12	1	120	220	320	NaN	520	0.182449974585325	1	1	NaN	1709934.5134908	NaN	1709935.4968747	1709936.01342463
11	19	1	0	90	36.1581920903955	36.241610738255	25	0.83339020004496	2	1	2	NaN	1	5	0.0440279895567065	0	1	NaN	391	7	13	1	120	220	320	NaN	520	0.0898122270591557	1	1	NaN	1709937.0137128	NaN	1709937.9971343	1709938.51366237
11	19	1	0	90	36.1581920903955	36.241610738255	20	0.666712160035968	2	7	1	NaN	2	4	0.0440279895567065	0	1	NaN	392	7	14	1	120	220	320	NaN	520	0.105734121752903	2	1	NaN	1709939.413964	NaN	1709940.3973449	1709940.91390778
11	19	1	0	90	36.1581920903955	36.241610738255	0	0	1	12	4	NaN	2	5	0.0440279895567065	0	1	NaN	393	7	15	1	110	210	310	NaN	510	0.489104769425467	1	0	NaN	1709941.8308681	NaN	1709942.8142717	1709943.33079423
11	19	1	0	90	36.1581920903955	36.241610738255	24	0.800054592043161	2	9	5	NaN	2	5	0.0440279895567065	0	1	NaN	394	7	16	1	120	220	320	NaN	520	0.215852269437164	2	1	NaN	1709944.6478028	NaN	1709945.6311839	1709946.14773953
11	19	1	0	90	36.1581920903955	36.241610738255	14	0.466698512025177	2	1	6	NaN	1	4	0.0440279895567065	0	1	NaN	395	7	17	1	120	220	320	NaN	520	0.210530269425362	1	1	NaN	1709947.1813957	NaN	1709948.1647848	1709948.68132183
11	19	1	0	90	36.1581920903955	36.241610738255	7	0.233349256012589	2	4	3	NaN	1	5	0.0440279895567065	0	1	NaN	396	7	18	1	120	220	320	NaN	520	0.100755674531683	1	1	NaN	1709949.7148712	NaN	1709950.6983655	1709951.21491173
11	19	1	0	90	36.1581920903955	36.241610738255	13	0.433362904023379	2	3	2	NaN	1	5	0.0440279895567065	0	1	NaN	397	7	19	1	120	220	320	NaN	520	0.291947116842493	1	1	NaN	1709952.1318823	NaN	1709953.1152752	1709953.63180558
11	19	1	0	90	36.1581920903955	36.241610738255	18	0.600040944032371	2	2	6	NaN	1	5	0.0440279895567065	0	1	NaN	398	7	20	1	120	220	320	NaN	520	1.37977592181414	1	1	NaN	1709954.7320028	NaN	1709955.7155333	1709956.23207428
11	19	1	0	90	36.1581920903955	36.241610738255	22	0.733383376039565	2	3	1	NaN	1	5	0.0440279895567065	0	1	NaN	399	7	21	1	120	220	320	NaN	520	0.295031521935016	1	1	NaN	1709958.4325252	NaN	1709959.4158867	1709959.93244008
11	19	1	0	90	36.1581920903955	36.241610738255	11	0.366691688019782	2	12	6	NaN	2	5	0.0440279895567065	0	1	NaN	400	7	22	1	120	220	320	NaN	520	0.76661442196928	2	1	NaN	1709961.049429	NaN	1709962.032818	1709962.54935828
11	19	1	0	90	36.1581920903955	36.241610738255	6	0.20001364801079	2	10	4	NaN	2	4	0.0440279895567065	0	1	NaN	401	7	23	1	120	220	320	NaN	520	0.129956969525665	2	1	NaN	1709964.1497143	NaN	1709965.1331349	1709965.64966033
11	19	1	0	90	36.1581920903955	36.241610738255	18	0.600040944032371	2	5	5	NaN	1	4	0.0440279895567065	0	1	NaN	402	7	24	1	120	220	320	NaN	520	0.184882969595492	1	1	NaN	1709966.5833011	NaN	1709967.5666802	1709968.08323313
11	19	1	0	90	36.1581920903955	36.241610738255	10	0.333356080017984	2	10	1	NaN	2	4	0.0440279895567065	0	1	NaN	403	7	25	1	120	220	320	NaN	520	0.203348969575018	2	1	NaN	1709969.1002083	NaN	1709970.0836133	1709970.60014343
11	19	1	0	90	36.1581920903955	36.241610738255	25	0.83339020004496	2	2	6	NaN	1	3	0.0440279895567065	0	1	NaN	404	7	26	1	120	220	320	NaN	520	0.0617875999305397	1	1	NaN	1709971.63378	NaN	1709972.6172167	1709973.1337512
11	19	1	0	90	36.1581920903955	36.241610738255	25	0.83339020004496	2	8	5	NaN	2	5	0.0440279895567065	0	1	NaN	405	7	27	1	120	220	320	NaN	520	1.33530111680739	1	0	NaN	1709974.0006757	NaN	1709974.9840879	1709975.50062838
11	19	1	0	90	36.1581920903955	36.241610738255	20	0.666712160035968	2	6	2	NaN	1	4	0.0440279895567065	0	1	NaN	406	7	28	1	120	220	320	NaN	520	0.404725821921602	1	1	NaN	1709977.6510574	NaN	1709978.6344482	1709979.15098498
11	19	1	0	90	36.1581920903955	36.241610738255	7	0.233349256012589	2	8	4	NaN	2	3	0.0440279895567065	0	1	NaN	407	7	29	1	120	220	320	NaN	520	0.552034869557247	1	0	NaN	1709980.3679871	NaN	1709981.3514085	1709981.86792273
11	19	1	0	90	36.1581920903955	36.241610738255	6	0.20001364801079	2	1	1	NaN	1	4	0.0440279895567065	0	1	NaN	408	7	30	1	120	220	320	NaN	520	1.06111196964048	1	1	NaN	1709983.2349049	NaN	1709984.2183256	1709984.73486513
11	19	1	0	90	36.1581920903955	36.241610738255	15	0.500034120026976	2	3	5	NaN	1	5	0.0440279895567065	0	1	NaN	409	7	31	1	120	220	320	NaN	520	0.237974969437346	1	1	NaN	1709986.6019438	NaN	1709987.5852972	1709988.10185883
11	19	1	0	90	36.1581920903955	36.241610738255	9	0.300020472016186	2	11	1	NaN	2	4	0.0440279895567065	0	1	NaN	410	7	32	1	120	220	320	NaN	520	0.207449521869421	2	1	NaN	1709989.1521807	NaN	1709990.135568	1709990.65211998
11	19	1	0	90	36.1581920903955	36.241610738255	6	0.20001364801079	2	8	6	NaN	2	4	0.0440279895567065	0	1	NaN	411	7	33	1	120	220	320	NaN	520	0.202885179780424	1	0	NaN	1709991.6689397	NaN	1709992.6524769	1709993.16903132
11	19	1	0	90	36.1581920903955	36.241610738255	16	0.533369728028774	2	8	5	NaN	2	5	0.0440279895567065	0	1	NaN	412	7	34	1	120	220	320	NaN	520	0.694068259326741	1	0	NaN	1709994.1860068	NaN	1709995.1693928	1709995.68594394
11	19	1	0	90	36.1581920903955	36.241610738255	22	0.733383376039565	2	10	2	NaN	2	5	0.0440279895567065	0	1	NaN	413	7	35	1	120	220	320	NaN	520	0.252720369491726	1	0	NaN	1709997.2029777	NaN	1709998.1863314	1709998.70290203
11	19	1	0	90	36.1581920903955	36.241610738255	18	0.600040944032371	2	5	5	NaN	1	3	0.0440279895567065	0	1	NaN	414	7	36	1	120	220	320	NaN	520	0.229605827014893	1	1	NaN	1709999.786564	NaN	1710000.7699511	1710001.28649937
11	19	1	0	90	36.1581920903955	36.241610738255	9	0.300020472016186	2	4	2	NaN	1	5	0.0440279895567065	0	1	NaN	415	7	37	1	120	220	320	NaN	520	0.143265469465405	1	1	NaN	1710002.3368098	NaN	1710003.3201992	1710003.83673893
11	19	1	0	90	36.1581920903955	36.241610738255	9	0.300020472016186	2	1	1	NaN	1	5	0.0440279895567065	0	1	NaN	416	7	38	1	120	220	320	NaN	520	0.228146079927683	1	1	NaN	1710004.8035792	NaN	1710005.7871122	1710006.30365262
11	19	1	0	90	36.1581920903955	36.241610738255	13	0.433362904023379	2	9	4	NaN	2	3	0.0440279895567065	0	1	NaN	417	7	39	1	120	220	320	NaN	520	0.0104801694396883	1	0	NaN	1710007.3539714	NaN	1710008.3373816	1710008.85389963
11	19	1	0	90	36.1581920903955	36.241610738255	12	0.400027296021581	2	9	1	NaN	2	4	0.0440279895567065	0	1	NaN	418	7	40	1	120	220	320	NaN	520	0.0104064696934074	1	0	NaN	1710009.6875186	NaN	1710010.6709268	1710011.18747153
11	19	1	0	90	36.1581920903955	36.241610738255	15	0.500034120026976	2	5	6	NaN	1	5	0.0440279895567065	0	1	NaN	419	7	41	1	120	220	320	NaN	520	0.23466926952824	1	1	NaN	1710012.0210989	NaN	1710013.0045016	1710013.52102103
11	19	1	0	90	36.1581920903955	36.241610738255	9	0.300020472016186	2	9	1	NaN	2	3	0.0440279895567065	0	1	NaN	420	7	42	1	120	220	320	NaN	520	0.132267342414707	1	0	NaN	1710014.5713604	NaN	1710015.5547586	1710016.07128516
11	19	1	0	90	36.1581920903955	36.241610738255	6	0.20001364801079	2	11	6	NaN	2	3	0.0440279895567065	0	1	NaN	421	7	43	1	120	220	320	NaN	520	0.0104676696937531	1	0	NaN	1710017.0216424	NaN	1710018.0049825	1710018.52151283
11	19	1	0	90	36.1581920903955	36.241610738255	11	0.366691688019782	2	8	6	NaN	2	4	0.0440279895567065	0	1	NaN	422	7	44	1	120	220	320	NaN	520	1.00452972203493	2	1	NaN	1710019.3551569	NaN	1710020.3385358	1710020.85508758
11	19	1	0	90	36.1581920903955	36.241610738255	11	0.366691688019782	2	8	4	NaN	2	5	0.0440279895567065	0	1	NaN	423	7	45	1	120	220	320	NaN	520	0.239076969446614	2	1	NaN	1710022.6888007	NaN	1710023.6722129	1710024.18874213
11	19	1	0	90	36.1581920903955	36.241610738255	19	0.633376552034169	2	4	4	NaN	1	5	0.0440279895567065	0	1	NaN	424	7	46	1	120	220	320	NaN	520	0.0103610374499112	2	0	NaN	1710025.2555888	NaN	1710026.2391339	1710026.75567056
11	19	1	0	90	36.1581920903955	36.241610738255	19	0.633376552034169	2	11	2	NaN	2	3	0.0440279895567065	0	1	NaN	425	7	47	1	120	220	320	NaN	520	0.427352216793224	1	0	NaN	1710027.5726266	NaN	1710028.5560144	1710029.07255688
11	19	1	0	90	36.1581920903955	36.241610738255	8	0.266684864014387	2	4	4	NaN	1	5	0.0440279895567065	0	1	NaN	426	7	48	1	120	220	320	NaN	520	0.0498624695464969	1	1	NaN	1710030.4061115	NaN	1710031.3896054	1710031.90616263
11	19	1	0	90	36.1581920903955	36.241610738255	15	0.500034120026976	2	12	1	NaN	2	4	0.0440279895567065	0	1	NaN	427	7	49	1	120	220	320	NaN	520	0.210668974556029	2	1	NaN	1710032.773139	NaN	1710033.7565228	1710034.27307313
11	19	1	0	90	36.1581920903955	36.241610738255	15	0.500034120026976	2	9	4	NaN	2	5	0.0440279895567065	0	1	NaN	428	7	50	1	120	220	320	NaN	520	0.133221269585192	2	1	NaN	1710035.306697	NaN	1710036.2900953	1710036.80664713
11	19	1	0	90	36.1581920903955	36.241610738255	17	0.566705336030573	2	2	1	NaN	1	3	0.0440279895567065	0	1	NaN	429	7	51	1	120	220	320	NaN	520	0.138855116907507	1	1	NaN	1710037.7569637	NaN	1710038.7403419	1710039.25688388
11	19	1	0	90	36.1581920903955	36.241610738255	15	0.500034120026976	2	4	6	NaN	1	3	0.0440279895567065	0	1	NaN	430	7	52	1	120	220	320	NaN	520	0.152509169420227	1	1	NaN	1710040.2072028	NaN	1710041.1905527	1710041.70712313
11	19	1	0	90	36.1581920903955	36.241610738255	11	0.366691688019782	2	5	1	NaN	1	5	0.0440279895567065	0	1	NaN	431	7	53	1	120	220	320	NaN	520	0.0772381217684597	1	1	NaN	1710042.6907699	NaN	1710043.6741356	1710044.19070148
11	19	1	0	90	36.1581920903955	36.241610738255	6	0.20001364801079	2	3	3	NaN	1	3	0.0440279895567065	0	1	NaN	432	7	54	1	120	220	320	NaN	520	0.268763469532132	1	1	NaN	1710045.0910025	NaN	1710046.0743838	1710046.59093673
11	19	1	0	90	36.1581920903955	36.241610738255	0	0	1	3	5	NaN	1	5	0.0440279895567065	0	1	NaN	433	7	55	1	110	210	310	NaN	510	0.24448462203145	1	1	NaN	1710047.691261	NaN	1710048.6746416	1710049.19119948
11	19	1	0	90	36.1581920903955	36.241610738255	17	0.566705336030573	2	8	3	NaN	2	3	0.0440279895567065	0	1	NaN	434	7	56	1	120	220	320	NaN	520	0.154178169555962	1	0	NaN	1710050.5414336	NaN	1710051.5249334	1710052.04147713
11	19	1	0	90	36.1581920903955	36.241610738255	13	0.433362904023379	2	1	6	NaN	1	5	0.0440279895567065	0	1	NaN	435	7	57	1	120	220	320	NaN	520	0.471663737436756	1	1	NaN	1710053.0084628	NaN	1710053.9918795	1710054.50839636
11	19	1	0	90	36.1581920903955	36.241610738255	16	0.533369728028774	2	2	1	NaN	1	3	0.0440279895567065	0	1	NaN	436	7	58	1	120	220	320	NaN	520	0.264263021759689	1	1	NaN	1710056.1754113	NaN	1710057.1588175	1710057.67536318
11	19	1	0	90	36.1581920903955	36.241610738255	12	0.400027296021581	2	5	1	NaN	1	5	0.0440279895567065	0	1	NaN	437	7	59	1	120	220	320	NaN	520	0.0648763694334775	1	1	NaN	1710058.7590079	NaN	1710059.7424208	1710060.25895013
11	19	1	0	90	36.1581920903955	36.241610738255	10	0.333356080017984	2	6	2	NaN	1	3	0.0440279895567065	0	1	NaN	438	7	60	1	120	220	320	NaN	520	0.0571883169468492	1	1	NaN	1710061.1425639	NaN	1710062.1259705	1710062.64251668
11	19	1	0	90	36.1581920903955	36.241610738255	21	0.700047768037766	2	4	5	NaN	1	5	0.0440279895567065	0	1	NaN	439	7	61	1	120	220	320	NaN	520	0.0822755694389343	1	1	NaN	1710063.5095277	NaN	1710064.4928911	1710065.00941493
11	19	1	0	90	36.1581920903955	36.241610738255	7	0.233349256012589	2	3	1	NaN	1	4	0.0440279895567065	0	1	NaN	440	7	62	1	120	220	320	NaN	520	0.441949332132936	1	1	NaN	1710065.9097106	NaN	1710066.8930982	1710067.40965037
11	19	1	0	90	36.1581920903955	36.241610738255	20	0.666712160035968	2	11	6	NaN	2	4	0.0440279895567065	0	1	NaN	441	7	63	1	120	220	320	NaN	520	0.227203569374979	1	0	NaN	1710068.6766517	NaN	1710069.6600548	1710070.17658803
11	19	1	0	90	36.1581920903955	36.241610738255	7	0.233349256012589	2	5	1	NaN	1	3	0.0440279895567065	0	1	NaN	442	8	1	1	120	220	320	NaN	520	0.553908921778202	2	0	NaN	1710085.0782698	NaN	1710086.0616668	1710086.57821048
11	19	1	0	90	36.1581920903955	36.241610738255	0	0	1	5	4	NaN	1	5	0.0440279895567065	0	1	NaN	443	8	2	1	110	210	310	NaN	510	0.101918169530109	1	1	NaN	1710087.9618826	NaN	1710088.9452773	1710089.46182053
11	19	1	0	90	36.1581920903955	36.241610738255	23	0.766718984041363	2	2	3	NaN	1	4	0.0440279895567065	0	1	NaN	444	8	3	1	120	220	320	NaN	520	0.322905969340354	1	1	NaN	1710091.2288319	NaN	1710092.2122659	1710092.72880613
11	19	1	0	90	36.1581920903955	36.241610738255	14	0.466698512025177	2	6	5	NaN	1	4	0.0440279895567065	0	1	NaN	445	8	4	1	120	220	320	NaN	520	1.62719577457756	2	0	NaN	1710096.2125782	NaN	1710097.1960767	1710097.71263443
11	19	1	0	90	36.1581920903955	36.241610738255	25	0.83339020004496	2	6	1	NaN	1	4	0.0440279895567065	0	1	NaN	446	8	5	1	120	220	320	NaN	520	0.316662716912106	1	1	NaN	1710100.1630447	NaN	1710101.1464654	1710101.66301858
11	19	1	0	90	36.1581920903955	36.241610738255	21	0.700047768037766	2	10	5	NaN	2	3	0.0440279895567065	0	1	NaN	447	8	6	1	120	220	320	NaN	520	0.707269627135247	1	0	NaN	1710102.796655	NaN	1710103.7800718	1710104.29660637
11	19	1	0	90	36.1581920903955	36.241610738255	20	0.666712160035968	2	10	6	NaN	2	3	0.0440279895567065	0	1	NaN	448	8	7	1	120	220	320	NaN	520	0.242045022081584	1	0	NaN	1710105.8135922	NaN	1710106.7970584	1710107.31357148
11	19	1	0	90	36.1581920903955	36.241610738255	22	0.733383376039565	2	9	6	NaN	2	5	0.0440279895567065	0	1	NaN	449	8	8	1	120	220	320	NaN	520	1.25155367446132	1	0	NaN	1710108.3805667	NaN	1710109.3639408	1710109.88049703
11	19	1	0	90	36.1581920903955	36.241610738255	0	0	1	12	5	NaN	2	5	0.0440279895567065	0	1	NaN	450	8	9	1	110	210	310	NaN	510	0.283592121908441	1	0	NaN	1710111.964313	NaN	1710112.9476087	1710113.46417668
11	19	1	0	90	36.1581920903955	36.241610738255	23	0.766718984041363	2	8	1	NaN	2	3	0.0440279895567065	0	1	NaN	451	8	10	1	120	220	320	NaN	520	0.0834109743591398	1	0	NaN	1710114.5644923	NaN	1710115.547933	1710116.06443993
11	19	1	0	90	36.1581920903955	36.241610738255	6	0.20001364801079	2	10	3	NaN	2	3	0.0440279895567065	0	1	NaN	452	8	11	1	120	220	320	NaN	520	1.08311831695028	1	0	NaN	1710116.9647158	NaN	1710117.9481317	1710118.46466318
11	19	1	0	90	36.1581920903955	36.241610738255	19	0.633376552034169	2	7	2	NaN	2	4	0.0440279895567065	0	1	NaN	453	8	12	1	120	220	320	NaN	520	0.106858969433233	1	0	NaN	1710120.365147	NaN	1710121.3485045	1710121.86499683
11	19	1	0	90	36.1581920903955	36.241610738255	11	0.366691688019782	2	11	1	NaN	2	4	0.0440279895567065	0	1	NaN	454	8	13	1	120	220	320	NaN	520	0.185910321772099	1	0	NaN	1710122.7820242	NaN	1710123.7653996	1710124.28191108
11	19	1	0	90	36.1581920903955	36.241610738255	25	0.83339020004496	2	3	4	NaN	1	3	0.0440279895567065	0	1	NaN	455	8	14	1	120	220	320	NaN	520	0.803430321859196	1	1	NaN	1710125.5488911	NaN	1710126.5323036	1710127.04885068
11	19	1	0	90	36.1581920903955	36.241610738255	25	0.83339020004496	2	9	4	NaN	2	4	0.0440279895567065	0	1	NaN	456	8	15	1	120	220	320	NaN	520	0.318276869598776	1	0	NaN	1710128.6658848	NaN	1710129.6492747	1710130.16581903
11	19	1	0	90	36.1581920903955	36.241610738255	14	0.466698512025177	2	8	1	NaN	2	4	0.0440279895567065	0	1	NaN	457	8	16	1	120	220	320	NaN	520	0.332120264181867	1	0	NaN	1710131.3159952	NaN	1710132.2995166	1710132.81607414
11	19	1	0	90	36.1581920903955	36.241610738255	25	0.83339020004496	2	6	4	NaN	1	3	0.0440279895567065	0	1	NaN	458	8	17	1	120	220	320	NaN	520	0.890063321916386	1	1	NaN	1710133.9664105	NaN	1710134.9497841	1710135.46634628
