subjno	age	gender	isPractice	viewdist	CmToPixX	CmToPixY	SOA_frm	SOA_time	targNum	targID	targExample	targRace	targGender	firstTargPos	contrast	familiarity	curr_staircase	iStair	TrialNum	BlockNum	blktrl	sessionNum	TC_FIXATION	TC_RSVP_START	TC_RSVP_END	TC_BLANK	TC_RESPONSE_ONSET	RT2afc	resp_2afc	acc	RSVPOnsetVBL	RSVPOnsetTime	RSVPOffsetVBL	RSVPOffsetTime	startrt_2afc
2	21	0	0	90	36.1581920903955	36.241610738255	8	0.266684511974454	2	6	6	NaN	1	5	0.058938015802289	0	1	NaN	1	1	1	2	120	220	320	NaN	520	0.254890526877716	1	1	NaN	1278466.9679103	NaN	1278467.9511942	1278468.48432747
2	21	0	0	90	36.1581920903955	36.241610738255	23	0.766717971926555	2	2	4	NaN	1	4	0.058938015802289	0	1	NaN	2	1	2	2	120	220	320	NaN	520	0.292997126933187	2	0	NaN	1278469.6015056	NaN	1278470.5847879	1278471.11791737
2	21	0	0	90	36.1581920903955	36.241610738255	23	0.766717971926555	2	12	6	NaN	2	3	0.058938015802289	0	1	NaN	3	1	3	2	120	220	320	NaN	520	0.0106314166914672	2	1	NaN	1278472.2348861	NaN	1278473.2182847	1278473.73484148
2	21	0	0	90	36.1581920903955	36.241610738255	19	0.633375715939328	2	4	6	NaN	1	3	0.058938015802289	0	1	NaN	4	1	4	2	120	220	320	NaN	520	0.287433516699821	2	0	NaN	1278475.3518573	NaN	1278476.3352619	1278476.85181008
2	21	0	0	90	36.1581920903955	36.241610738255	21	0.700046843932942	2	4	4	NaN	1	3	0.058938015802289	0	1	NaN	5	1	5	2	120	220	320	NaN	520	0.285851669264957	1	1	NaN	1278477.9688024	NaN	1278478.952156	1278479.46872753
2	21	0	0	90	36.1581920903955	36.241610738255	21	0.700046843932942	2	8	6	NaN	2	4	0.058938015802289	0	1	NaN	6	1	6	2	120	220	320	NaN	520	0.247181721730158	2	1	NaN	1278480.9356733	NaN	1278481.919156	1278482.43569548
2	21	0	0	90	36.1581920903955	36.241610738255	15	0.500033459952101	2	3	6	NaN	1	3	0.058938015802289	0	1	NaN	7	1	7	2	120	220	320	NaN	520	0.312710689846426	1	1	NaN	1278483.8856982	NaN	1278484.8694229	1278485.38598871
2	21	0	0	90	36.1581920903955	36.241610738255	0	0	1	3	1	NaN	1	4	0.058938015802289	0	1	NaN	8	1	8	2	110	210	310	NaN	510	0.0713724691886455	1	1	NaN	1278486.5196143	NaN	1278487.5030308	1278488.01957023
2	21	0	0	90	36.1581920903955	36.241610738255	6	0.20001338398084	2	2	1	NaN	1	5	0.058938015802289	0	1	NaN	9	1	9	2	120	220	320	NaN	520	0.0942362216301262	1	1	NaN	1278491.5367032	NaN	1278492.5201655	1278493.03672728
2	21	0	0	90	36.1581920903955	36.241610738255	9	0.300020075971261	2	10	1	NaN	2	3	0.058938015802289	0	1	NaN	10	1	10	2	120	220	320	NaN	520	0.0103968216571957	2	1	NaN	1278493.9536931	NaN	1278494.9370859	1278495.45363538
2	21	0	0	90	36.1581920903955	36.241610738255	8	0.266684511974454	2	1	2	NaN	1	3	0.058938015802289	0	1	NaN	11	1	11	2	120	220	320	NaN	520	0.327903821598738	2	0	NaN	1278496.287246	NaN	1278497.2706434	1278497.78719568
2	21	0	0	90	36.1581920903955	36.241610738255	9	0.300020075971261	2	4	5	NaN	1	5	0.058938015802289	0	1	NaN	12	1	12	2	120	220	320	NaN	520	0.293623221805319	2	0	NaN	1278498.9375027	NaN	1278499.9208999	1278500.43745698
2	21	0	0	90	36.1581920903955	36.241610738255	0	0	1	1	2	NaN	1	5	0.058938015802289	0	1	NaN	13	1	13	2	110	210	310	NaN	510	0.108520827023312	1	1	NaN	1278501.5544276	NaN	1278502.537821	1278503.05438087
2	21	0	0	90	36.1581920903955	36.241610738255	22	0.733382407929748	2	11	1	NaN	2	3	0.058938015802289	0	1	NaN	14	1	14	2	120	220	320	NaN	520	0.186901221750304	2	1	NaN	1278503.9878612	NaN	1278504.9714128	1278505.48795728
2	21	0	0	90	36.1581920903955	36.241610738255	15	0.500033459952101	2	8	3	NaN	2	3	0.058938015802289	0	1	NaN	15	1	15	2	120	220	320	NaN	520	0.230909021571279	2	1	NaN	1278506.4882974	NaN	1278507.4716791	1278507.98820258
2	21	0	0	90	36.1581920903955	36.241610738255	8	0.266684511974454	2	8	2	NaN	2	5	0.058938015802289	0	1	NaN	16	1	16	2	120	220	320	NaN	520	0.248585374094546	2	1	NaN	1278509.0384989	NaN	1278510.0219164	1278510.53844653
2	21	0	0	90	36.1581920903955	36.241610738255	13	0.433362331958488	2	12	6	NaN	2	5	0.058938015802289	0	1	NaN	17	1	17	2	120	220	320	NaN	520	0.257656589848921	2	1	NaN	1278511.6054376	NaN	1278512.5888086	1278513.10536881
2	21	0	0	90	36.1581920903955	36.241610738255	24	0.800053535923362	2	1	1	NaN	1	4	0.058938015802289	0	1	NaN	18	1	18	2	120	220	320	NaN	520	0.201847142307088	1	1	NaN	1278514.188996	NaN	1278515.1724073	1278515.68896776
2	21	0	0	90	36.1581920903955	36.241610738255	15	0.500033459952101	2	12	1	NaN	2	3	0.058938015802289	0	1	NaN	19	1	19	2	120	220	320	NaN	520	0.149316621711478	2	1	NaN	1278516.7059984	NaN	1278517.6893274	1278518.20586618
2	21	0	0	90	36.1581920903955	36.241610738255	20	0.666711279936135	2	10	1	NaN	2	4	0.058938015802289	0	1	NaN	20	1	20	2	120	220	320	NaN	520	0.234327816637233	2	1	NaN	1278519.1728009	NaN	1278520.156234	1278520.67277738
2	21	0	0	90	36.1581920903955	36.241610738255	23	0.766717971926555	2	4	6	NaN	1	4	0.058938015802289	0	1	NaN	21	1	21	2	120	220	320	NaN	520	0.107845521531999	1	1	NaN	1278521.7230751	NaN	1278522.7064687	1278523.22302748
2	21	0	0	90	36.1581920903955	36.241610738255	24	0.800053535923362	2	3	3	NaN	1	5	0.058938015802289	0	1	NaN	22	1	22	2	120	220	320	NaN	520	0.0503333692904562	1	1	NaN	1278524.1566656	NaN	1278525.1400453	1278525.65660113
2	21	0	0	90	36.1581920903955	36.241610738255	22	0.733382407929748	2	2	5	NaN	1	5	0.058938015802289	0	1	NaN	23	1	23	2	120	220	320	NaN	520	0.647524821572006	1	1	NaN	1278528.4237205	NaN	1278529.4071278	1278529.92369608
2	21	0	0	90	36.1581920903955	36.241610738255	15	0.500033459952101	2	7	4	NaN	2	4	0.058938015802289	0	1	NaN	24	1	24	2	120	220	320	NaN	520	0.0242384690791368	2	1	NaN	1278531.3906723	NaN	1278532.3740821	1278532.89065013
2	21	0	0	90	36.1581920903955	36.241610738255	19	0.633375715939328	2	1	3	NaN	1	3	0.058938015802289	0	1	NaN	25	1	25	2	120	220	320	NaN	520	0.333977421745658	2	0	NaN	1278534.2408386	NaN	1278535.2243804	1278535.74092368
2	21	0	0	90	36.1581920903955	36.241610738255	13	0.433362331958488	2	5	3	NaN	1	3	0.058938015802289	0	1	NaN	26	1	26	2	120	220	320	NaN	520	0.312784821726382	1	1	NaN	1278537.374585	NaN	1278538.358014	1278538.87455968
2	21	0	0	90	36.1581920903955	36.241610738255	19	0.633375715939328	2	10	4	NaN	2	5	0.058938015802289	0	1	NaN	27	1	27	2	120	220	320	NaN	520	0.199030874297023	2	1	NaN	1278540.0082006	NaN	1278540.991599	1278541.50816133
2	21	0	0	90	36.1581920903955	36.241610738255	15	0.500033459952101	2	1	1	NaN	1	5	0.058938015802289	0	1	NaN	28	1	28	2	120	220	320	NaN	520	0.146045269211754	1	1	NaN	1278542.5251169	NaN	1278543.5085245	1278544.02507073
2	21	0	0	90	36.1581920903955	36.241610738255	11	0.366691203964874	2	3	5	NaN	1	5	0.058938015802289	0	1	NaN	29	1	29	2	120	220	320	NaN	520	0.155653421534225	1	1	NaN	1278545.0753616	NaN	1278546.0587615	1278546.57532478
2	21	0	0	90	36.1581920903955	36.241610738255	16	0.533369023948908	2	3	3	NaN	1	3	0.058938015802289	0	1	NaN	30	1	30	2	120	220	320	NaN	520	0.0389420692808926	1	1	NaN	1278550.1757443	NaN	1278551.1592609	1278551.67582353
2	21	0	0	90	36.1581920903955	36.241610738255	25	0.833389099920169	2	5	5	NaN	1	5	0.058938015802289	0	1	NaN	31	1	31	2	120	220	320	NaN	520	0.184206869220361	1	1	NaN	1278553.1428332	NaN	1278554.1262212	1278554.64277343
2	21	0	0	90	36.1581920903955	36.241610738255	11	0.366691203964874	2	7	1	NaN	2	4	0.058938015802289	0	1	NaN	32	1	32	2	120	220	320	NaN	520	0.500170621555299	1	0	NaN	1278555.6430607	NaN	1278556.6264747	1278557.14303998
2	21	0	0	90	36.1581920903955	36.241610738255	17	0.566704587945715	2	5	3	NaN	1	3	0.058938015802289	0	1	NaN	33	1	33	2	120	220	320	NaN	520	0.518150621559471	1	1	NaN	1278558.9767583	NaN	1278559.9601281	1278560.47668808
2	21	0	0	90	36.1581920903955	36.241610738255	7	0.233348947977647	2	2	1	NaN	1	3	0.058938015802289	0	1	NaN	34	1	34	2	120	220	320	NaN	520	0.228593269363046	1	1	NaN	1278561.8103303	NaN	1278562.7937441	1278563.31029683
2	21	0	0	90	36.1581920903955	36.241610738255	19	0.633375715939328	2	11	3	NaN	2	4	0.058938015802289	0	1	NaN	35	1	35	2	120	220	320	NaN	520	0.110077221645042	2	1	NaN	1278564.3606036	NaN	1278565.3439869	1278565.86054308
2	21	0	0	90	36.1581920903955	36.241610738255	13	0.433362331958488	2	5	5	NaN	1	3	0.058938015802289	0	1	NaN	36	1	36	2	120	220	320	NaN	520	0.0103151898365468	1	1	NaN	1278566.794162	NaN	1278567.7775525	1278568.29412481
2	21	0	0	90	36.1581920903955	36.241610738255	6	0.20001338398084	2	3	2	NaN	1	3	0.058938015802289	0	1	NaN	37	1	37	2	120	220	320	NaN	520	0.57755876914598	1	1	NaN	1278570.8612085	NaN	1278571.8446283	1278572.36118083
2	21	0	0	90	36.1581920903955	36.241610738255	25	0.833389099920169	2	4	6	NaN	1	4	0.058938015802289	0	1	NaN	38	1	38	2	120	220	320	NaN	520	0.384822421474382	1	1	NaN	1278575.8783264	NaN	1278576.8618012	1278577.37834558
2	21	0	0	90	36.1581920903955	36.241610738255	16	0.533369023948908	2	9	3	NaN	2	3	0.058938015802289	0	1	NaN	39	1	39	2	120	220	320	NaN	520	0.17229967424646	1	0	NaN	1278578.5786484	NaN	1278579.5620527	1278580.07861273
2	21	0	0	90	36.1581920903955	36.241610738255	10	0.333355639968067	2	11	4	NaN	2	5	0.058938015802289	0	1	NaN	40	1	40	2	120	220	320	NaN	520	0.112777621485293	2	1	NaN	1278581.0622481	NaN	1278582.0456445	1278582.56218628
2	21	0	0	90	36.1581920903955	36.241610738255	21	0.700046843932942	2	7	1	NaN	2	5	0.058938015802289	0	1	NaN	41	1	41	2	120	220	320	NaN	520	0.291369542246684	2	1	NaN	1278584.1958654	NaN	1278585.179267	1278585.69582816
2	21	0	0	90	36.1581920903955	36.241610738255	7	0.233348947977647	2	5	1	NaN	1	5	0.058938015802289	0	1	NaN	42	1	42	2	120	220	320	NaN	520	0.226921216817573	1	1	NaN	1278586.796124	NaN	1278587.7795635	1278588.29609348
2	21	0	0	90	36.1581920903955	36.241610738255	15	0.500033459952101	2	3	1	NaN	1	5	0.058938015802289	0	1	NaN	43	1	43	2	120	220	320	NaN	520	0.277663474436849	2	0	NaN	1278589.3297096	NaN	1278590.3130877	1278590.82966933
2	21	0	0	90	36.1581920903955	36.241610738255	13	0.433362331958488	2	11	3	NaN	2	3	0.058938015802289	0	1	NaN	44	1	44	2	120	220	320	NaN	520	0.250944021623582	2	1	NaN	1278592.1798947	NaN	1278593.1633942	1278593.67994358
2	21	0	0	90	36.1581920903955	36.241610738255	22	0.733382407929748	2	7	3	NaN	2	3	0.058938015802289	0	1	NaN	45	1	45	2	120	220	320	NaN	520	0.127970416564494	2	1	NaN	1278595.2469393	NaN	1278596.2303855	1278596.74690418
2	21	0	0	90	36.1581920903955	36.241610738255	11	0.366691203964874	2	5	4	NaN	1	4	0.058938015802289	0	1	NaN	46	1	46	2	120	220	320	NaN	520	0.194013621658087	1	1	NaN	1278598.1972029	NaN	1278599.1806512	1278599.69719948
2	21	0	0	90	36.1581920903955	36.241610738255	7	0.233348947977647	2	7	4	NaN	2	5	0.058938015802289	0	1	NaN	47	1	47	2	120	220	320	NaN	520	0.244713621679693	2	1	NaN	1278600.7141655	NaN	1278601.697595	1278602.21411168
2	21	0	0	90	36.1581920903955	36.241610738255	22	0.733382407929748	2	4	2	NaN	1	3	0.058938015802289	0	1	NaN	48	1	48	2	120	220	320	NaN	520	0.306879221694544	1	1	NaN	1278603.5643315	NaN	1278604.54788	1278605.06439478
2	21	0	0	90	36.1581920903955	36.241610738255	18	0.600040151942521	2	8	6	NaN	2	5	0.058938015802289	0	1	NaN	49	1	49	2	120	220	320	NaN	520	0.0104101693723351	1	0	NaN	1278606.1813417	NaN	1278607.1647671	1278607.68131123
2	21	0	0	90	36.1581920903955	36.241610738255	21	0.700046843932942	2	3	2	NaN	1	4	0.058938015802289	0	1	NaN	50	1	50	2	120	220	320	NaN	520	0.0102880897466093	1	1	NaN	1278610.5150288	NaN	1278611.4985452	1278612.01507521
2	21	0	0	90	36.1581920903955	36.241610738255	8	0.266684511974454	2	3	1	NaN	1	4	0.058938015802289	0	1	NaN	51	1	51	2	120	220	320	NaN	520	0.0103815742768347	1	1	NaN	1278613.4320805	NaN	1278614.4154783	1278614.93203803
2	21	0	0	90	36.1581920903955	36.241610738255	9	0.300020075971261	2	10	5	NaN	2	5	0.058938015802289	0	1	NaN	52	1	52	2	120	220	320	NaN	520	0.277978821657598	1	0	NaN	1278617.2492985	NaN	1278618.2325181	1278618.74906888
2	21	0	0	90	36.1581920903955	36.241610738255	14	0.466697895955294	2	6	1	NaN	1	4	0.058938015802289	0	1	NaN	53	1	53	2	120	220	320	NaN	520	0.302581121679395	1	1	NaN	1278619.8327306	NaN	1278620.8160989	1278621.33265488
2	21	0	0	90	36.1581920903955	36.241610738255	21	0.700046843932942	2	5	2	NaN	1	5	0.058938015802289	0	1	NaN	54	1	54	2	120	220	320	NaN	520	0.0103912216145545	1	1	NaN	1278623.0996575	NaN	1278624.083097	1278624.59964178
2	21	0	0	90	36.1581920903955	36.241610738255	17	0.566704587945715	2	5	3	NaN	1	3	0.058938015802289	0	1	NaN	55	1	55	2	120	220	320	NaN	520	0.405755321728066	1	1	NaN	1278625.4332577	NaN	1278626.4166451	1278626.93320488
2	21	0	0	90	36.1581920903955	36.241610738255	6	0.20001338398084	2	7	3	NaN	2	3	0.058938015802289	0	1	NaN	56	1	56	2	120	220	320	NaN	520	0.336965121794492	1	0	NaN	1278628.1501885	NaN	1278629.1336093	1278629.65013868
2	21	0	0	90	36.1581920903955	36.241610738255	25	0.833389099920169	2	9	1	NaN	2	4	0.058938015802289	0	1	NaN	57	1	57	2	120	220	320	NaN	520	0.617327521555126	2	1	NaN	1278632.933868	NaN	1278633.9173729	1278634.43393868
2	21	0	0	90	36.1581920903955	36.241610738255	19	0.633375715939328	2	5	4	NaN	1	3	0.058938015802289	0	1	NaN	58	1	58	2	120	220	320	NaN	520	0.17135213711299	2	0	NaN	1278635.8676076	NaN	1278636.8510273	1278637.36756786
2	21	0	0	90	36.1581920903955	36.241610738255	13	0.433362331958488	2	1	3	NaN	1	5	0.058938015802289	0	1	NaN	59	1	59	2	120	220	320	NaN	520	0.23978772177361	2	0	NaN	1278638.3511916	NaN	1278639.3345865	1278639.85114518
2	21	0	0	90	36.1581920903955	36.241610738255	22	0.733382407929748	2	1	6	NaN	1	3	0.058938015802289	0	1	NaN	60	1	60	2	120	220	320	NaN	520	0.0103957217652351	2	0	NaN	1278640.9013553	NaN	1278641.8848345	1278642.40139388
2	21	0	0	90	36.1581920903955	36.241610738255	20	0.666711279936135	2	9	1	NaN	2	4	0.058938015802289	0	1	NaN	61	1	61	2	120	220	320	NaN	520	0.126072621671483	2	1	NaN	1278643.7850339	NaN	1278644.768451	1278645.28500268
2	21	0	0	90	36.1581920903955	36.241610738255	6	0.20001338398084	2	6	2	NaN	1	3	0.058938015802289	0	1	NaN	62	1	62	2	120	220	320	NaN	520	0.0104063216131181	1	1	NaN	1278646.2186223	NaN	1278647.2020334	1278647.71857848
2	21	0	0	90	36.1581920903955	36.241610738255	12	0.400026767961681	2	7	6	NaN	2	5	0.058938015802289	0	1	NaN	63	1	63	2	120	220	320	NaN	520	0.167809874285012	2	1	NaN	1278648.5355334	NaN	1278649.5189697	1278650.03548243
2	21	0	0	90	36.1581920903955	36.241610738255	8	0.266684511974454	2	10	4	NaN	2	5	0.058938015802289	0	1	NaN	64	2	1	2	120	220	320	NaN	520	0.193669779691845	2	1	NaN	1278693.7733011	NaN	1278694.7566902	1278695.27325522
2	21	0	0	90	36.1581920903955	36.241610738255	10	0.333355639968067	2	4	3	NaN	1	4	0.058938015802289	0	1	NaN	65	2	2	2	120	220	320	NaN	520	0.0212950217537582	2	0	NaN	1278696.2735495	NaN	1278697.2569462	1278697.77349698
2	21	0	0	90	36.1581920903955	36.241610738255	21	0.700046843932942	2	11	6	NaN	2	5	0.058938015802289	0	1	NaN	66	2	3	2	120	220	320	NaN	520	0.0104529215022922	2	1	NaN	1278698.6071022	NaN	1278699.5905086	1278700.10705938
2	21	0	0	90	36.1581920903955	36.241610738255	19	0.633375715939328	2	7	3	NaN	2	4	0.058938015802289	0	1	NaN	67	2	4	2	120	220	320	NaN	520	0.0104103218764067	2	1	NaN	1278700.9239963	NaN	1278701.9074056	1278702.42395328
2	21	0	0	90	36.1581920903955	36.241610738255	16	0.533369023948908	2	7	6	NaN	2	5	0.058938015802289	0	1	NaN	68	2	5	2	120	220	320	NaN	520	0.0858826423063874	2	1	NaN	1278703.240846	NaN	1278704.2243099	1278704.74085176
2	21	0	0	90	36.1581920903955	36.241610738255	13	0.433362331958488	2	11	4	NaN	2	4	0.058938015802289	0	1	NaN	69	2	6	2	120	220	320	NaN	520	0.0104150692932308	2	1	NaN	1278705.6576722	NaN	1278706.6412051	1278707.15774873
2	21	0	0	90	36.1581920903955	36.241610738255	18	0.600040151942521	2	9	4	NaN	2	4	0.058938015802289	0	1	NaN	70	2	7	2	120	220	320	NaN	520	0.135906121693552	2	1	NaN	1278707.9913733	NaN	1278708.9747386	1278709.49130638
2	21	0	0	90	36.1581920903955	36.241610738255	0	0	1	12	1	NaN	2	5	0.058938015802289	0	1	NaN	71	2	8	2	110	210	310	NaN	510	0.0104229692369699	2	1	NaN	1278710.4415933	NaN	1278711.4250316	1278711.94154903
2	21	0	0	90	36.1581920903955	36.241610738255	7	0.233348947977647	2	9	6	NaN	2	4	0.058938015802289	0	1	NaN	72	2	9	2	120	220	320	NaN	520	0.104695021640509	2	1	NaN	1278712.75849	NaN	1278713.7418895	1278714.25844968
2	21	0	0	90	36.1581920903955	36.241610738255	17	0.566704587945715	2	7	3	NaN	2	3	0.058938015802289	0	1	NaN	73	2	10	2	120	220	320	NaN	520	0.0104863692540675	2	1	NaN	1278715.1754213	NaN	1278716.158805	1278716.67535423
2	21	0	0	90	36.1581920903955	36.241610738255	7	0.233348947977647	2	6	3	NaN	1	5	0.058938015802289	0	1	NaN	74	2	11	2	120	220	320	NaN	520	0.091008874354884	1	1	NaN	1278717.4922946	NaN	1278718.4756938	1278718.99225143
2	21	0	0	90	36.1581920903955	36.241610738255	9	0.300020075971261	2	2	4	NaN	1	3	0.058938015802289	0	1	NaN	75	2	12	2	120	220	320	NaN	520	0.186980489641428	2	0	NaN	1278719.8925387	NaN	1278720.8759264	1278721.39248751
2	21	0	0	90	36.1581920903955	36.241610738255	22	0.733382407929748	2	8	4	NaN	2	5	0.058938015802289	0	1	NaN	76	2	13	2	120	220	320	NaN	520	0.301733374362811	1	0	NaN	1278722.6094331	NaN	1278723.5928629	1278724.10941703
2	21	0	0	90	36.1581920903955	36.241610738255	7	0.233348947977647	2	3	5	NaN	1	4	0.058938015802289	0	1	NaN	77	2	14	2	120	220	320	NaN	520	0.124682021560147	1	1	NaN	1278725.2263818	NaN	1278726.2098201	1278726.72633578
2	21	0	0	90	36.1581920903955	36.241610738255	17	0.566704587945715	2	12	2	NaN	2	5	0.058938015802289	0	1	NaN	78	2	15	2	120	220	320	NaN	520	0.0104155216831714	2	1	NaN	1278728.1766932	NaN	1278729.1600655	1278729.67662898
2	21	0	0	90	36.1581920903955	36.241610738255	12	0.400026767961681	2	9	3	NaN	2	3	0.058938015802289	0	1	NaN	79	2	16	2	120	220	320	NaN	520	0.097609416814521	1	0	NaN	1278730.493574	NaN	1278731.4769705	1278731.99351638
2	21	0	0	90	36.1581920903955	36.241610738255	23	0.766717971926555	2	8	1	NaN	2	5	0.058938015802289	0	1	NaN	80	2	17	2	120	220	320	NaN	520	0.222007821779698	2	1	NaN	1278733.377205	NaN	1278734.3605849	1278734.87713678
2	21	0	0	90	36.1581920903955	36.241610738255	9	0.300020075971261	2	6	4	NaN	1	3	0.058938015802289	0	1	NaN	81	2	18	2	120	220	320	NaN	520	0.384782621636987	1	1	NaN	1278735.9107561	NaN	1278736.8941528	1278737.41071128
2	21	0	0	90	36.1581920903955	36.241610738255	11	0.366691203964874	2	7	4	NaN	2	4	0.058938015802289	0	1	NaN	82	2	19	2	120	220	320	NaN	520	0.236370874335989	1	0	NaN	1278738.6110933	NaN	1278739.5944138	1278740.11098563
2	21	0	0	90	36.1581920903955	36.241610738255	10	0.333355639968067	2	6	2	NaN	1	5	0.058938015802289	0	1	NaN	83	2	20	2	120	220	320	NaN	520	0.230075021507218	1	1	NaN	1278741.1612856	NaN	1278742.144722	1278742.66122888
2	21	0	0	90	36.1581920903955	36.241610738255	24	0.800053535923362	2	7	2	NaN	2	3	0.058938015802289	0	1	NaN	84	2	21	2	120	220	320	NaN	520	0.223991174483672	2	1	NaN	1278743.7115895	NaN	1278744.6949263	1278745.21148993
2	21	0	0	90	36.1581920903955	36.241610738255	10	0.333355639968067	2	11	6	NaN	2	3	0.058938015802289	0	1	NaN	85	2	22	2	120	220	320	NaN	520	0.330164921702817	2	1	NaN	1278746.2451124	NaN	1278747.2285207	1278747.74506868
2	21	0	0	90	36.1581920903955	36.241610738255	21	0.700046843932942	2	11	3	NaN	2	5	0.058938015802289	0	1	NaN	86	2	23	2	120	220	320	NaN	520	0.808146021794528	2	1	NaN	1278748.8953991	NaN	1278749.878751	1278750.39532298
2	21	0	0	90	36.1581920903955	36.241610738255	16	0.533369023948908	2	5	2	NaN	1	3	0.058938015802289	0	1	NaN	87	2	24	2	120	220	320	NaN	520	0.150785921839997	1	1	NaN	1278752.5124117	NaN	1278753.4957998	1278754.01235288
2	21	0	0	90	36.1581920903955	36.241610738255	23	0.766717971926555	2	9	3	NaN	2	5	0.058938015802289	0	1	NaN	88	2	25	2	120	220	320	NaN	520	0.220184974372387	1	0	NaN	1278754.9793163	NaN	1278755.9626977	1278756.47926113
2	21	0	0	90	36.1581920903955	36.241610738255	16	0.533369023948908	2	9	2	NaN	2	5	0.058938015802289	0	1	NaN	89	2	26	2	120	220	320	NaN	520	0.422215821687132	2	1	NaN	1278757.5128086	NaN	1278758.4962867	1278759.01283608
2	21	0	0	90	36.1581920903955	36.241610738255	7	0.233348947977647	2	5	5	NaN	1	5	0.058938015802289	0	1	NaN	90	2	27	2	120	220	320	NaN	520	0.0501158216502517	1	1	NaN	1278760.4130439	NaN	1278761.3966087	1278761.91312408
2	21	0	0	90	36.1581920903955	36.241610738255	12	0.400026767961681	2	8	6	NaN	2	5	0.058938015802289	0	1	NaN	91	2	28	2	120	220	320	NaN	520	0.222351921722293	2	1	NaN	1278763.2967593	NaN	1278764.280183	1278764.79673808
2	21	0	0	90	36.1581920903955	36.241610738255	19	0.633375715939328	2	12	2	NaN	2	4	0.058938015802289	0	1	NaN	92	2	29	2	120	220	320	NaN	520	0.177187321707606	1	0	NaN	1278765.8303791	NaN	1278766.8137558	1278767.33032798
2	21	0	0	90	36.1581920903955	36.241610738255	6	0.20001338398084	2	8	5	NaN	2	5	0.058938015802289	0	1	NaN	93	2	30	2	120	220	320	NaN	520	0.261725821532309	2	1	NaN	1278768.3139446	NaN	1278769.2973461	1278769.81389208
2	21	0	0	90	36.1581920903955	36.241610738255	16	0.533369023948908	2	10	2	NaN	2	4	0.058938015802289	0	1	NaN	94	2	31	2	120	220	320	NaN	520	1.00931032164954	1	0	NaN	1278771.4142124	NaN	1278772.3977166	1278772.91419608
2	21	0	0	90	36.1581920903955	36.241610738255	11	0.366691203964874	2	4	4	NaN	1	5	0.058938015802289	0	1	NaN	95	2	32	2	120	220	320	NaN	520	4.54526586923748	1	1	NaN	1278775.1979281	NaN	1278776.1813559	1278776.69790423
2	21	0	0	90	36.1581920903955	36.241610738255	6	0.20001338398084	2	4	6	NaN	1	4	0.058938015802289	0	1	NaN	96	2	33	2	120	220	320	NaN	520	0.361005221726373	1	1	NaN	1278782.1986441	NaN	1278783.1820344	1278783.69859538
2	21	0	0	90	36.1581920903955	36.241610738255	19	0.633375715939328	2	10	1	NaN	2	5	0.058938015802289	0	1	NaN	97	2	34	2	120	220	320	NaN	520	0.605709821684286	2	1	NaN	1278784.865449	NaN	1278785.8489841	1278786.36552668
2	21	0	0	90	36.1581920903955	36.241610738255	9	0.300020075971261	2	9	5	NaN	2	5	0.058938015802289	0	1	NaN	98	2	35	2	120	220	320	NaN	520	0.369004216743633	2	1	NaN	1278787.7825192	NaN	1278788.7659141	1278789.28247008
2	21	0	0	90	36.1581920903955	36.241610738255	9	0.300020075971261	2	11	6	NaN	2	3	0.058938015802289	0	1	NaN	99	2	36	2	120	220	320	NaN	520	0.29320972179994	2	1	NaN	1278790.4661308	NaN	1278791.4495406	1278791.96607598
2	21	0	0	90	36.1581920903955	36.241610738255	15	0.500033459952101	2	6	6	NaN	1	4	0.058938015802289	0	1	NaN	100	2	37	2	120	220	320	NaN	520	0.173227574210614	1	1	NaN	1278793.0662392	NaN	1278794.0497667	1278794.56633563
2	21	0	0	90	36.1581920903955	36.241610738255	23	0.766717971926555	2	4	3	NaN	1	5	0.058938015802289	0	1	NaN	101	2	38	2	120	220	320	NaN	520	0.177284869132563	1	1	NaN	1278795.5499473	NaN	1278796.5333539	1278797.04989813
2	21	0	0	90	36.1581920903955	36.241610738255	20	0.666711279936135	2	8	2	NaN	2	3	0.058938015802289	0	1	NaN	102	2	39	2	120	220	320	NaN	520	0.205874321749434	1	0	NaN	1278798.033527	NaN	1278799.0169406	1278799.53348188
2	21	0	0	90	36.1581920903955	36.241610738255	11	0.366691203964874	2	9	4	NaN	2	5	0.058938015802289	0	1	NaN	103	2	40	2	120	220	320	NaN	520	0.0104115693829954	2	1	NaN	1278800.5504536	NaN	1278801.5338456	1278802.05038973
2	21	0	0	90	36.1581920903955	36.241610738255	17	0.566704587945715	2	9	2	NaN	2	4	0.058938015802289	0	1	NaN	104	2	41	2	120	220	320	NaN	520	0.0104024216998369	2	1	NaN	1278802.867342	NaN	1278803.8507365	1278804.36729298
2	21	0	0	90	36.1581920903955	36.241610738255	8	0.266684511974454	2	9	2	NaN	2	5	0.058938015802289	0	1	NaN	105	2	42	2	120	220	320	NaN	520	0.251349421683699	2	1	NaN	1278805.6842495	NaN	1278806.6677116	1278807.18422698
2	21	0	0	90	36.1581920903955	36.241610738255	0	0	1	11	5	NaN	2	5	0.058938015802289	0	1	NaN	106	2	43	2	110	210	310	NaN	510	0.188081074273214	2	1	NaN	1278808.2512058	NaN	1278809.2346182	1278809.75114643
2	21	0	0	90	36.1581920903955	36.241610738255	24	0.800053535923362	2	10	3	NaN	2	4	0.058938015802289	0	1	NaN	107	2	44	2	120	220	320	NaN	520	0.312129821628332	2	1	NaN	1278810.7514435	NaN	1278811.7348489	1278812.25139678
2	21	0	0	90	36.1581920903955	36.241610738255	0	0	1	6	4	NaN	1	3	0.058938015802289	0	1	NaN	108	2	45	2	110	210	310	NaN	510	0.415242121787742	1	1	NaN	1278813.3683742	NaN	1278814.3517744	1278814.86832098
2	21	0	0	90	36.1581920903955	36.241610738255	9	0.300020075971261	2	12	2	NaN	2	5	0.058938015802289	0	1	NaN	109	2	46	2	120	220	320	NaN	520	0.0103164843749255	2	1	NaN	1278817.5187417	NaN	1278818.5021725	1278819.01873522
2	21	0	0	90	36.1581920903955	36.241610738255	18	0.600040151942521	2	11	5	NaN	2	4	0.058938015802289	0	1	NaN	110	2	47	2	120	220	320	NaN	520	0.26704807439819	2	1	NaN	1278819.8523356	NaN	1278820.8357289	1278821.35228543
2	21	0	0	90	36.1581920903955	36.241610738255	18	0.600040151942521	2	6	4	NaN	1	4	0.058938015802289	0	1	NaN	111	2	48	2	120	220	320	NaN	520	0.284835321828723	1	1	NaN	1278822.602611	NaN	1278823.586008	1278824.10255968
2	21	0	0	90	36.1581920903955	36.241610738255	9	0.300020075971261	2	12	1	NaN	2	3	0.058938015802289	0	1	NaN	112	2	49	2	120	220	320	NaN	520	0.0103992216754705	2	1	NaN	1278825.6695587	NaN	1278826.6529792	1278827.16952268
2	21	0	0	90	36.1581920903955	36.241610738255	7	0.233348947977647	2	10	4	NaN	2	3	0.058938015802289	0	1	NaN	113	2	50	2	120	220	320	NaN	520	0.156845532124862	2	1	NaN	1278827.9864686	NaN	1278828.9698688	1278829.48642167
2	21	0	0	90	36.1581920903955	36.241610738255	13	0.433362331958488	2	9	5	NaN	2	4	0.058938015802289	0	1	NaN	114	2	51	2	120	220	320	NaN	520	0.213564821518958	2	1	NaN	1278830.9701086	NaN	1278831.9535269	1278832.47004598
2	21	0	0	90	36.1581920903955	36.241610738255	11	0.366691203964874	2	11	5	NaN	2	3	0.058938015802289	0	1	NaN	115	2	52	2	120	220	320	NaN	520	0.0103963215369731	2	1	NaN	1278833.5035593	NaN	1278834.4870785	1278835.00363248
2	21	0	0	90	36.1581920903955	36.241610738255	13	0.433362331958488	2	3	5	NaN	1	3	0.058938015802289	0	1	NaN	116	2	53	2	120	220	320	NaN	520	0.639816074399278	1	1	NaN	1278836.2872951	NaN	1278837.2706811	1278837.78724153
2	21	0	0	90	36.1581920903955	36.241610738255	18	0.600040151942521	2	7	2	NaN	2	3	0.058938015802289	0	1	NaN	117	2	54	2	120	220	320	NaN	520	0.293759021675214	2	1	NaN	1278839.7375864	NaN	1278840.7210369	1278841.23757658
2	21	0	0	90	36.1581920903955	36.241610738255	15	0.500033459952101	2	10	1	NaN	2	4	0.058938015802289	0	1	NaN	118	2	55	2	120	220	320	NaN	520	0.197270221542567	2	1	NaN	1278842.3378855	NaN	1278843.321271	1278843.83783748
2	21	0	0	90	36.1581920903955	36.241610738255	12	0.400026767961681	2	6	6	NaN	1	4	0.058938015802289	0	1	NaN	119	2	56	2	120	220	320	NaN	520	0.010454211384058	1	1	NaN	1278844.8381393	NaN	1278845.821532	1278846.33808459
2	21	0	0	90	36.1581920903955	36.241610738255	23	0.766717971926555	2	10	5	NaN	2	4	0.058938015802289	0	1	NaN	120	2	57	2	120	220	320	NaN	520	0.340594121487811	2	1	NaN	1278847.1550284	NaN	1278848.13842	1278848.65496308
2	21	0	0	90	36.1581920903955	36.241610738255	23	0.766717971926555	2	10	5	NaN	2	5	0.058938015802289	0	1	NaN	121	2	58	2	120	220	320	NaN	520	0.394097721669823	2	1	NaN	1278849.8052866	NaN	1278850.7886912	1278851.30523108
2	21	0	0	90	36.1581920903955	36.241610738255	11	0.366691203964874	2	12	4	NaN	2	4	0.058938015802289	0	1	NaN	122	2	59	2	120	220	320	NaN	520	0.429929121630266	2	1	NaN	1278852.505415	NaN	1278853.488936	1278854.00548848
2	21	0	0	90	36.1581920903955	36.241610738255	19	0.633375715939328	2	2	6	NaN	1	5	0.058938015802289	0	1	NaN	123	2	60	2	120	220	320	NaN	520	0.0103999215643853	1	1	NaN	1278855.2558098	NaN	1278856.2392241	1278856.75576028
2	21	0	0	90	36.1581920903955	36.241610738255	13	0.433362331958488	2	8	2	NaN	2	5	0.058938015802289	0	1	NaN	124	2	61	2	120	220	320	NaN	520	0.0104012216906995	2	1	NaN	1278857.572706	NaN	1278858.5561048	1278859.07265408
2	21	0	0	90	36.1581920903955	36.241610738255	0	0	1	3	4	NaN	1	4	0.058938015802289	0	1	NaN	125	2	62	2	110	210	310	NaN	510	0.0104018216952682	1	1	NaN	1278859.889537	NaN	1278860.873001	1278861.38955018
2	21	0	0	90	36.1581920903955	36.241610738255	7	0.233348947977647	2	2	2	NaN	1	4	0.058938015802289	0	1	NaN	126	2	63	2	120	220	320	NaN	520	0.424712174106389	2	0	NaN	1278862.2064772	NaN	1278863.1898957	1278863.70645203
2	21	0	0	90	36.1581920903955	36.241610738255	11	0.366691203964874	2	10	6	NaN	2	5	0.058938015802289	0	1	NaN	127	3	1	2	120	220	320	NaN	520	0.0103302844800055	2	1	NaN	1278865.9235392	NaN	1278866.9069263	1278867.42348632
2	21	0	0	90	36.1581920903955	36.241610738255	22	0.733382407929748	2	7	1	NaN	2	5	0.058938015802289	0	1	NaN	128	3	2	2	120	220	320	NaN	520	0.234152621589601	1	0	NaN	1278868.7571374	NaN	1278869.7405389	1278870.25709258
2	21	0	0	90	36.1581920903955	36.241610738255	6	0.20001338398084	2	7	3	NaN	2	3	0.058938015802289	0	1	NaN	129	3	3	2	120	220	320	NaN	520	0.244006321765482	2	1	NaN	1278871.307373	NaN	1278872.2907957	1278872.80733388
2	21	0	0	90	36.1581920903955	36.241610738255	14	0.466697895955294	2	3	3	NaN	1	5	0.058938015802289	0	1	NaN	130	3	4	2	120	220	320	NaN	520	0.253776821773499	1	1	NaN	1278873.8576421	NaN	1278874.8410819	1278875.35759178
2	21	0	0	90	36.1581920903955	36.241610738255	23	0.766717971926555	2	9	3	NaN	2	3	0.058938015802289	0	1	NaN	131	3	5	2	120	220	320	NaN	520	0.199184569297358	1	0	NaN	1278876.4246272	NaN	1278877.4079596	1278877.92450143
2	21	0	0	90	36.1581920903955	36.241610738255	9	0.300020075971261	2	7	2	NaN	2	4	0.058938015802289	0	1	NaN	132	3	6	2	120	220	320	NaN	520	0.185978000052273	2	1	NaN	1278878.9413384	NaN	1278879.9248796	1278880.4414484
2	21	0	0	90	36.1581920903955	36.241610738255	12	0.400026767961681	2	12	4	NaN	2	4	0.058938015802289	0	1	NaN	133	3	7	2	120	220	320	NaN	520	0.173725942382589	2	1	NaN	1278881.4417185	NaN	1278882.4251153	1278882.94167906
2	21	0	0	90	36.1581920903955	36.241610738255	12	0.400026767961681	2	2	4	NaN	1	4	0.058938015802289	0	1	NaN	134	3	8	2	120	220	320	NaN	520	0.33015612163581	1	1	NaN	1278883.9252883	NaN	1278884.9086985	1278885.42525188
2	21	0	0	90	36.1581920903955	36.241610738255	24	0.800053535923362	2	10	6	NaN	2	3	0.058938015802289	0	1	NaN	135	3	9	2	120	220	320	NaN	520	0.239775674184784	2	1	NaN	1278886.5755562	NaN	1278887.5589285	1278888.07550983
2	21	0	0	90	36.1581920903955	36.241610738255	6	0.20001338398084	2	1	5	NaN	1	4	0.058938015802289	0	1	NaN	136	3	10	2	120	220	320	NaN	520	0.24949902179651	2	0	NaN	1278889.1257988	NaN	1278890.1092939	1278890.62575898
2	21	0	0	90	36.1581920903955	36.241610738255	9	0.300020075971261	2	3	6	NaN	1	3	0.058938015802289	0	1	NaN	137	3	11	2	120	220	320	NaN	520	0.298699321690947	1	1	NaN	1278891.692722	NaN	1278892.6761186	1278893.19267628
2	21	0	0	90	36.1581920903955	36.241610738255	7	0.233348947977647	2	10	5	NaN	2	5	0.058938015802289	0	1	NaN	138	3	12	2	120	220	320	NaN	520	0.265732121653855	2	1	NaN	1278894.3096405	NaN	1278895.2930685	1278895.80959518
2	21	0	0	90	36.1581920903955	36.241610738255	14	0.466697895955294	2	8	5	NaN	2	3	0.058938015802289	0	1	NaN	139	3	13	2	120	220	320	NaN	520	0.242211521603167	2	1	NaN	1278896.8932664	NaN	1278897.8766491	1278898.39318128
2	21	0	0	90	36.1581920903955	36.241610738255	15	0.500033459952101	2	9	6	NaN	2	5	0.058938015802289	0	1	NaN	140	3	14	2	120	220	320	NaN	520	0.236093221697956	2	1	NaN	1278899.4434805	NaN	1278900.4269569	1278900.94343438
2	21	0	0	90	36.1581920903955	36.241610738255	13	0.433362331958488	2	2	1	NaN	1	5	0.058938015802289	0	1	NaN	141	3	15	2	120	220	320	NaN	520	0.245633379323408	2	0	NaN	1278901.9937496	NaN	1278902.977135	1278903.49368342
2	21	0	0	90	36.1581920903955	36.241610738255	13	0.433362331958488	2	10	3	NaN	2	4	0.058938015802289	0	1	NaN	142	3	16	2	120	220	320	NaN	520	0.255786921828985	2	1	NaN	1278904.5439872	NaN	1278905.5273603	1278906.04394068
2	21	0	0	90	36.1581920903955	36.241610738255	14	0.466697895955294	2	5	2	NaN	1	5	0.058938015802289	0	1	NaN	143	3	17	2	120	220	320	NaN	520	0.120644774287939	1	1	NaN	1278907.1109092	NaN	1278908.0942873	1278908.61086203
2	21	0	0	90	36.1581920903955	36.241610738255	20	0.666711279936135	2	12	5	NaN	2	5	0.058938015802289	0	1	NaN	144	3	18	2	120	220	320	NaN	520	0.439209621632472	1	0	NaN	1278909.5443545	NaN	1278910.5278568	1278911.04442488
2	21	0	0	90	36.1581920903955	36.241610738255	14	0.466697895955294	2	1	6	NaN	1	5	0.058938015802289	0	1	NaN	145	3	19	2	120	220	320	NaN	520	0.305039974162355	2	0	NaN	1278912.2947415	NaN	1278913.2781411	1278913.79470353
2	21	0	0	90	36.1581920903955	36.241610738255	14	0.466697895955294	2	11	2	NaN	2	3	0.058938015802289	0	1	NaN	146	3	20	2	120	220	320	NaN	520	0.0557253167498857	2	1	NaN	1278914.9116619	NaN	1278915.8950717	1278916.41161908
2	21	0	0	90	36.1581920903955	36.241610738255	13	0.433362331958488	2	4	5	NaN	1	3	0.058938015802289	0	1	NaN	147	3	21	2	120	220	320	NaN	520	0.744802721776068	1	1	NaN	1278917.2785467	NaN	1278918.2619593	1278918.77851258
2	21	0	0	90	36.1581920903955	36.241610738255	20	0.666711279936135	2	1	1	NaN	1	4	0.058938015802289	0	1	NaN	148	3	22	2	120	220	320	NaN	520	0.0103980216663331	1	1	NaN	1278920.8955568	NaN	1278921.878992	1278922.39554078
2	21	0	0	90	36.1581920903955	36.241610738255	11	0.366691203964874	2	1	5	NaN	1	3	0.058938015802289	0	1	NaN	149	3	23	2	120	220	320	NaN	520	0.19503272161819	2	0	NaN	1278923.2123618	NaN	1278924.1958757	1278924.71243018
2	21	0	0	90	36.1581920903955	36.241610738255	19	0.633375715939328	2	6	4	NaN	1	3	0.058938015802289	0	1	NaN	150	3	24	2	120	220	320	NaN	520	0.0104070692323148	1	1	NaN	1278925.7127141	NaN	1278926.696141	1278927.21267513
2	21	0	0	90	36.1581920903955	36.241610738255	25	0.833389099920169	2	6	5	NaN	1	4	0.058938015802289	0	1	NaN	151	3	25	2	120	220	320	NaN	520	0.281470821704715	1	1	NaN	1278928.0462931	NaN	1278929.0295855	1278929.54623878
2	21	0	0	90	36.1581920903955	36.241610738255	20	0.666711279936135	2	11	1	NaN	2	3	0.058938015802289	0	1	NaN	152	3	26	2	120	220	320	NaN	520	0.664795869262889	2	1	NaN	1278930.6465421	NaN	1278931.6299601	1278932.14649223
2	21	0	0	90	36.1581920903955	36.241610738255	8	0.266684511974454	2	6	3	NaN	1	5	0.058938015802289	0	1	NaN	153	3	27	2	120	220	320	NaN	520	0.201198421651497	1	1	NaN	1278933.6301684	NaN	1278934.6134714	1278935.13011818
2	21	0	0	90	36.1581920903955	36.241610738255	0	0	1	5	5	NaN	1	4	0.058938015802289	0	1	NaN	154	3	28	2	110	210	310	NaN	510	0.28432422154583	1	1	NaN	1278936.1470726	NaN	1278937.1304943	1278937.64703068
2	21	0	0	90	36.1581920903955	36.241610738255	16	0.533369023948908	2	12	3	NaN	2	5	0.058938015802289	0	1	NaN	155	3	29	2	120	220	320	NaN	520	0.585478074382991	1	0	NaN	1278939.2140519	NaN	1278940.197436	1278940.71401223
2	21	0	0	90	36.1581920903955	36.241610738255	13	0.433362331958488	2	6	5	NaN	1	5	0.058938015802289	0	1	NaN	156	3	30	2	120	220	320	NaN	520	0.108937769429758	1	1	NaN	1278942.1143515	NaN	1278943.0977909	1278943.61428263
2	21	0	0	90	36.1581920903955	36.241610738255	18	0.600040151942521	2	1	5	NaN	1	4	0.058938015802289	0	1	NaN	157	3	31	2	120	220	320	NaN	520	0.0102274999953806	2	0	NaN	1278944.5479749	NaN	1278945.5313052	1278946.0478906
2	21	0	0	90	36.1581920903955	36.241610738255	25	0.833389099920169	2	4	1	NaN	1	3	0.058938015802289	0	1	NaN	158	3	32	2	120	220	320	NaN	520	0.0103938216343522	1	1	NaN	1278946.8647924	NaN	1278947.8482037	1278948.36475368
2	21	0	0	90	36.1581920903955	36.241610738255	18	0.600040151942521	2	12	2	NaN	2	3	0.058938015802289	0	1	NaN	159	3	33	2	120	220	320	NaN	520	0.3851814691443	2	1	NaN	1278949.1983664	NaN	1278950.1817609	1278950.69831313
2	21	0	0	90	36.1581920903955	36.241610738255	6	0.20001338398084	2	12	3	NaN	2	3	0.058938015802289	0	1	NaN	160	3	34	2	120	220	320	NaN	520	0.685103921685368	1	0	NaN	1278951.8986275	NaN	1278952.8820425	1278953.39858108
2	21	0	0	90	36.1581920903955	36.241610738255	8	0.266684511974454	2	3	4	NaN	1	3	0.058938015802289	0	1	NaN	161	3	35	2	120	220	320	NaN	520	0.140811921562999	1	1	NaN	1278954.8989212	NaN	1278955.8823196	1278956.39887268
2	21	0	0	90	36.1581920903955	36.241610738255	23	0.766717971926555	2	1	6	NaN	1	4	0.058938015802289	0	1	NaN	162	3	36	2	120	220	320	NaN	520	0.250259074382484	1	1	NaN	1278957.3491666	NaN	1278958.3325683	1278958.84912413
2	21	0	0	90	36.1581920903955	36.241610738255	18	0.600040151942521	2	5	4	NaN	1	5	0.058938015802289	0	1	NaN	163	3	37	2	120	220	320	NaN	520	0.307660921476781	2	0	NaN	1278959.9160894	NaN	1278960.8994758	1278961.41603168
2	21	0	0	90	36.1581920903955	36.241610738255	20	0.666711279936135	2	11	1	NaN	2	3	0.058938015802289	0	1	NaN	164	3	38	2	120	220	320	NaN	520	0.242783521534875	2	1	NaN	1278962.5330008	NaN	1278963.5164111	1278964.03296318
2	21	0	0	90	36.1581920903955	36.241610738255	9	0.300020075971261	2	6	1	NaN	1	3	0.058938015802289	0	1	NaN	165	3	39	2	120	220	320	NaN	520	0.108359921490774	1	1	NaN	1278965.083279	NaN	1278966.0666706	1278966.58322428
2	21	0	0	90	36.1581920903955	36.241610738255	19	0.633375715939328	2	1	3	NaN	1	5	0.058938015802289	0	1	NaN	166	3	40	2	120	220	320	NaN	520	0.211621321737766	2	0	NaN	1278967.5001594	NaN	1278968.4835687	1278969.00011398
2	21	0	0	90	36.1581920903955	36.241610738255	14	0.466697895955294	2	7	5	NaN	2	5	0.058938015802289	0	1	NaN	167	3	41	2	120	220	320	NaN	520	0.070465769385919	2	1	NaN	1278970.0170929	NaN	1278971.0004707	1278971.51702323
2	21	0	0	90	36.1581920903955	36.241610738255	23	0.766717971926555	2	2	5	NaN	1	4	0.058938015802289	0	1	NaN	168	3	42	2	120	220	320	NaN	520	0.0104001215659082	2	0	NaN	1278972.7673302	NaN	1278973.7507611	1278974.26729988
2	21	0	0	90	36.1581920903955	36.241610738255	15	0.500033459952101	2	8	4	NaN	2	4	0.058938015802289	0	1	NaN	169	3	43	2	120	220	320	NaN	520	0.267489074263722	2	1	NaN	1278975.0842263	NaN	1278976.0676462	1278976.58419483
2	21	0	0	90	36.1581920903955	36.241610738255	12	0.400026767961681	2	8	3	NaN	2	4	0.058938015802289	0	1	NaN	170	3	44	2	120	220	320	NaN	520	0.179649421712384	2	1	NaN	1278977.6678228	NaN	1278978.6511275	1278979.16778288
2	21	0	0	90	36.1581920903955	36.241610738255	0	0	1	4	4	NaN	1	4	0.058938015802289	0	1	NaN	171	3	45	2	110	210	310	NaN	510	0.167713032104075	2	0	NaN	1278980.1680661	NaN	1278981.151472	1278981.66802987
2	21	0	0	90	36.1581920903955	36.241610738255	21	0.700046843932942	2	9	2	NaN	2	4	0.058938015802289	0	1	NaN	172	3	46	2	120	220	320	NaN	520	0.116195421665907	2	1	NaN	1278982.6516475	NaN	1278983.6350488	1278984.15160058
2	21	0	0	90	36.1581920903955	36.241610738255	9	0.300020075971261	2	7	2	NaN	2	4	0.058938015802289	0	1	NaN	173	3	47	2	120	220	320	NaN	520	0.698405084665865	2	1	NaN	1278985.0851293	NaN	1278986.0686123	1278986.58517852
2	21	0	0	90	36.1581920903955	36.241610738255	12	0.400026767961681	2	11	4	NaN	2	3	0.058938015802289	0	1	NaN	174	3	48	2	120	220	320	NaN	520	0.217651469400153	2	1	NaN	1278988.1021627	NaN	1278989.0855819	1278989.60213033
2	21	0	0	90	36.1581920903955	36.241610738255	16	0.533369023948908	2	7	6	NaN	2	4	0.058938015802289	0	1	NaN	175	3	49	2	120	220	320	NaN	520	0.148086469387636	2	1	NaN	1278990.6357575	NaN	1278991.6191439	1278992.13571413
2	21	0	0	90	36.1581920903955	36.241610738255	25	0.833389099920169	2	2	6	NaN	1	4	0.058938015802289	0	1	NaN	176	3	50	2	120	220	320	NaN	520	0.256878121756017	2	0	NaN	1278993.1026899	NaN	1278994.0860757	1278994.60262468
2	21	0	0	90	36.1581920903955	36.241610738255	19	0.633375715939328	2	3	1	NaN	1	5	0.058938015802289	0	1	NaN	177	3	51	2	120	220	320	NaN	520	0.426262321649119	2	0	NaN	1278995.6695976	NaN	1278996.6529886	1278997.16953938
2	21	0	0	90	36.1581920903955	36.241610738255	23	0.766717971926555	2	6	3	NaN	1	5	0.058938015802289	0	1	NaN	178	3	52	2	120	220	320	NaN	520	0.180639974307269	1	1	NaN	1278998.4031861	NaN	1278999.3866029	1278999.90315503
2	21	0	0	90	36.1581920903955	36.241610738255	24	0.800053535923362	2	11	1	NaN	2	3	0.058938015802289	0	1	NaN	179	3	53	2	120	220	320	NaN	520	0.120216269278899	2	1	NaN	1279000.9034448	NaN	1279001.8868308	1279002.40338623
2	21	0	0	90	36.1581920903955	36.241610738255	21	0.700046843932942	2	10	5	NaN	2	3	0.058938015802289	0	1	NaN	180	3	54	2	120	220	320	NaN	520	0.246902989689261	2	1	NaN	1279003.3370192	NaN	1279004.3204167	1279004.83697091
2	21	0	0	90	36.1581920903955	36.241610738255	8	0.266684511974454	2	7	5	NaN	2	5	0.058938015802289	0	1	NaN	181	3	55	2	120	220	320	NaN	520	0.624611169099808	2	1	NaN	1279006.2873089	NaN	1279007.2706016	1279007.78725403
2	21	0	0	90	36.1581920903955	36.241610738255	15	0.500033459952101	2	9	1	NaN	2	5	0.058938015802289	0	1	NaN	182	3	56	2	120	220	320	NaN	520	0.346926121739671	2	1	NaN	1279009.2209157	NaN	1279010.2043472	1279010.72087168
2	21	0	0	90	36.1581920903955	36.241610738255	6	0.20001338398084	2	3	6	NaN	1	4	0.058938015802289	0	1	NaN	183	3	57	2	120	220	320	NaN	520	0.240027889842167	2	0	NaN	1279011.8878591	NaN	1279012.8712453	1279013.38780201
2	21	0	0	90	36.1581920903955	36.241610738255	13	0.433362331958488	2	6	4	NaN	1	3	0.058938015802289	0	1	NaN	184	3	58	2	120	220	320	NaN	520	0.0104188693221658	1	1	NaN	1279014.43813	NaN	1279015.4215321	1279015.93805423
2	21	0	0	90	36.1581920903955	36.241610738255	12	0.400026767961681	2	4	2	NaN	1	3	0.058938015802289	0	1	NaN	185	3	59	2	120	220	320	NaN	520	0.723801621468738	1	1	NaN	1279017.3716989	NaN	1279018.3551179	1279018.87167898
2	21	0	0	90	36.1581920903955	36.241610738255	18	0.600040151942521	2	3	5	NaN	1	3	0.058938015802289	0	1	NaN	186	3	60	2	120	220	320	NaN	520	0.0104086694773287	1	1	NaN	1279020.4053593	NaN	1279021.3887472	1279021.90530033
2	21	0	0	90	36.1581920903955	36.241610738255	0	0	1	9	1	NaN	2	5	0.058938015802289	0	1	NaN	187	3	61	2	110	210	310	NaN	510	0.260381574276835	2	1	NaN	1279022.7389152	NaN	1279023.7223123	1279024.23887233
2	21	0	0	90	36.1581920903955	36.241610738255	11	0.366691203964874	2	10	2	NaN	2	4	0.058938015802289	0	1	NaN	188	3	62	2	120	220	320	NaN	520	0.197154621826485	1	0	NaN	1279025.322358	NaN	1279026.3059031	1279026.82245358
2	21	0	0	90	36.1581920903955	36.241610738255	6	0.20001338398084	2	12	4	NaN	2	5	0.058938015802289	0	1	NaN	189	3	63	2	120	220	320	NaN	520	0.0566061215940863	1	0	NaN	1279027.822754	NaN	1279028.806143	1279029.32269538
2	21	0	0	90	36.1581920903955	36.241610738255	12	0.400026767961681	2	4	5	NaN	1	5	0.058938015802289	0	1	NaN	190	4	1	2	120	220	320	NaN	520	0.37370517430827	2	0	NaN	1279032.6898876	NaN	1279033.6732919	1279034.18985273
2	21	0	0	90	36.1581920903955	36.241610738255	17	0.566704587945715	2	11	6	NaN	2	5	0.058938015802289	0	1	NaN	191	4	2	2	120	220	320	NaN	520	0.266106584575027	2	1	NaN	1279035.3733733	NaN	1279036.3569155	1279036.87344822
2	21	0	0	90	36.1581920903955	36.241610738255	24	0.800053535923362	2	12	3	NaN	2	3	0.058938015802289	0	1	NaN	192	4	3	2	120	220	320	NaN	520	0.23439472168684	1	0	NaN	1279037.9570699	NaN	1279038.9404695	1279039.45703028
2	21	0	0	90	36.1581920903955	36.241610738255	9	0.300020075971261	2	8	3	NaN	2	4	0.058938015802289	0	1	NaN	193	4	4	2	120	220	320	NaN	520	0.151287389686331	1	0	NaN	1279040.8405826	NaN	1279041.8240826	1279042.34064301
2	21	0	0	90	36.1581920903955	36.241610738255	16	0.533369023948908	2	4	1	NaN	1	4	0.058938015802289	0	1	NaN	194	4	5	2	120	220	320	NaN	520	0.26798683218658	1	1	NaN	1279043.3076443	NaN	1279044.291	1279044.80756117
2	21	0	0	90	36.1581920903955	36.241610738255	16	0.533369023948908	2	11	6	NaN	2	5	0.058938015802289	0	1	NaN	195	4	6	2	120	220	320	NaN	520	0.228369521675631	2	1	NaN	1279045.8911232	NaN	1279046.8746137	1279047.39113898
2	21	0	0	90	36.1581920903955	36.241610738255	25	0.833389099920169	2	7	4	NaN	2	4	0.058938015802289	0	1	NaN	196	4	7	2	120	220	320	NaN	520	0.238533121766523	2	1	NaN	1279048.4415671	NaN	1279049.4248445	1279049.94138668
2	21	0	0	90	36.1581920903955	36.241610738255	22	0.733382407929748	2	6	2	NaN	1	4	0.058938015802289	0	1	NaN	197	4	8	2	120	220	320	NaN	520	0.301065969280899	1	1	NaN	1279052.6584886	NaN	1279053.6419223	1279054.15847433
2	21	0	0	90	36.1581920903955	36.241610738255	20	0.666711279936135	2	3	5	NaN	1	3	0.058938015802289	0	1	NaN	198	4	9	2	120	220	320	NaN	520	0.0104152741841972	1	1	NaN	1279055.275314	NaN	1279056.2588359	1279056.77540223
2	21	0	0	90	36.1581920903955	36.241610738255	20	0.666711279936135	2	5	1	NaN	1	5	0.058938015802289	0	1	NaN	199	4	10	2	120	220	320	NaN	520	0.0103173844981939	2	0	NaN	1279057.5923357	NaN	1279058.5757498	1279059.09229582
2	21	0	0	90	36.1581920903955	36.241610738255	18	0.600040151942521	2	4	4	NaN	1	5	0.058938015802289	0	1	NaN	200	4	11	2	120	220	320	NaN	520	0.274247621651739	1	1	NaN	1279059.9092286	NaN	1279060.8926129	1279061.40917658
2	21	0	0	90	36.1581920903955	36.241610738255	22	0.733382407929748	2	11	1	NaN	2	3	0.058938015802289	0	1	NaN	201	4	12	2	120	220	320	NaN	520	0.010412621544674	2	1	NaN	1279062.4928073	NaN	1279063.4762259	1279063.99276538
2	21	0	0	90	36.1581920903955	36.241610738255	19	0.633375715939328	2	7	1	NaN	2	3	0.058938015802289	0	1	NaN	202	4	13	2	120	220	320	NaN	520	0.221991494763643	2	1	NaN	1279064.8097184	NaN	1279065.7931045	1279066.30967031
2	21	0	0	90	36.1581920903955	36.241610738255	25	0.833389099920169	2	8	3	NaN	2	3	0.058938015802289	0	1	NaN	203	4	14	2	120	220	320	NaN	520	0.344219694845378	2	1	NaN	1279067.3432758	NaN	1279068.3267089	1279068.84325751
2	21	0	0	90	36.1581920903955	36.241610738255	12	0.400026767961681	2	2	3	NaN	1	5	0.058938015802289	0	1	NaN	204	4	15	2	120	220	320	NaN	520	0.366409016540274	2	0	NaN	1279069.9935517	NaN	1279070.9769441	1279071.49349968
2	21	0	0	90	36.1581920903955	36.241610738255	16	0.533369023948908	2	4	2	NaN	1	4	0.058938015802289	0	1	NaN	205	4	16	2	120	220	320	NaN	520	0.20237666927278	1	1	NaN	1279072.6771406	NaN	1279073.6605499	1279074.17710183
2	21	0	0	90	36.1581920903955	36.241610738255	16	0.533369023948908	2	5	5	NaN	1	4	0.058938015802289	0	1	NaN	206	4	17	2	120	220	320	NaN	520	0.373467674246058	1	1	NaN	1279075.1940631	NaN	1279076.1775172	1279076.69402283
2	21	0	0	90	36.1581920903955	36.241610738255	7	0.233348947977647	2	12	4	NaN	2	4	0.058938015802289	0	1	NaN	207	4	18	2	120	220	320	NaN	520	0.442245921585709	1	0	NaN	1279077.8775445	NaN	1279078.8610628	1279079.37760908
2	21	0	0	90	36.1581920903955	36.241610738255	25	0.833389099920169	2	3	1	NaN	1	3	0.058938015802289	0	1	NaN	208	4	19	2	120	220	320	NaN	520	0.428080769488588	1	1	NaN	1279080.6279295	NaN	1279081.6113168	1279082.12787473
2	21	0	0	90	36.1581920903955	36.241610738255	20	0.666711279936135	2	2	6	NaN	1	4	0.058938015802289	0	1	NaN	209	4	20	2	120	220	320	NaN	520	0.0104016216937453	2	0	NaN	1279085.4117002	NaN	1279086.3951326	1279086.91168328
2	21	0	0	90	36.1581920903955	36.241610738255	7	0.233348947977647	2	12	4	NaN	2	5	0.058938015802289	0	1	NaN	210	4	21	2	120	220	320	NaN	520	0.306202821666375	2	1	NaN	1279088.245361	NaN	1279089.2287438	1279089.74529838
2	21	0	0	90	36.1581920903955	36.241610738255	10	0.333355639968067	2	12	3	NaN	2	3	0.058938015802289	0	1	NaN	211	4	22	2	120	220	320	NaN	520	0.121455169282854	2	1	NaN	1279090.8621689	NaN	1279091.84567	1279092.36221273
2	21	0	0	90	36.1581920903955	36.241610738255	6	0.20001338398084	2	2	5	NaN	1	3	0.058938015802289	0	1	NaN	212	4	23	2	120	220	320	NaN	520	0.0104617692995816	1	1	NaN	1279095.1126752	NaN	1279096.0960767	1279096.61263463
2	21	0	0	90	36.1581920903955	36.241610738255	10	0.333355639968067	2	2	2	NaN	1	3	0.058938015802289	0	1	NaN	213	4	24	2	120	220	320	NaN	520	0.0354620215948671	1	1	NaN	1279097.796249	NaN	1279098.7796927	1279099.29623598
2	21	0	0	90	36.1581920903955	36.241610738255	24	0.800053535923362	2	2	4	NaN	1	3	0.058938015802289	0	1	NaN	214	4	25	2	120	220	320	NaN	520	2.76403317414224	1	1	NaN	1279100.5798188	NaN	1279101.5632697	1279102.07984733
2	21	0	0	90	36.1581920903955	36.241610738255	15	0.500033459952101	2	4	3	NaN	1	4	0.058938015802289	0	1	NaN	215	4	26	2	120	220	320	NaN	520	0.27130609494634	1	1	NaN	1279105.8804096	NaN	1279106.8638099	1279107.38036711
2	21	0	0	90	36.1581920903955	36.241610738255	6	0.20001338398084	2	6	6	NaN	1	5	0.058938015802289	0	1	NaN	216	4	27	2	120	220	320	NaN	520	0.57932726922445	1	1	NaN	1279108.9807018	NaN	1279109.9641003	1279110.48066173
2	21	0	0	90	36.1581920903955	36.241610738255	17	0.566704587945715	2	10	4	NaN	2	4	0.058938015802289	0	1	NaN	217	4	28	2	120	220	320	NaN	520	0.0103963217698038	2	1	NaN	1279111.8642217	NaN	1279112.8477567	1279113.36428138
2	21	0	0	90	36.1581920903955	36.241610738255	14	0.466697895955294	2	3	2	NaN	1	4	0.058938015802289	0	1	NaN	218	4	29	2	120	220	320	NaN	520	0.194572421722114	1	1	NaN	1279114.1812283	NaN	1279115.1646209	1279115.68116778
2	21	0	0	90	36.1581920903955	36.241610738255	10	0.333355639968067	2	1	1	NaN	1	3	0.058938015802289	0	1	NaN	219	4	30	2	120	220	320	NaN	520	0.010394521523267	1	1	NaN	1279116.6815549	NaN	1279117.6649042	1279118.18141328
2	21	0	0	90	36.1581920903955	36.241610738255	23	0.766717971926555	2	3	1	NaN	1	5	0.058938015802289	0	1	NaN	220	4	31	2	120	220	320	NaN	520	0.217433521756902	1	1	NaN	1279118.9983644	NaN	1279119.9817554	1279120.49831698
2	21	0	0	90	36.1581920903955	36.241610738255	10	0.333355639968067	2	2	5	NaN	1	5	0.058938015802289	0	1	NaN	221	4	32	2	120	220	320	NaN	520	0.268131921766326	2	0	NaN	1279121.5319395	NaN	1279122.5153473	1279123.03189848
2	21	0	0	90	36.1581920903955	36.241610738255	8	0.266684511974454	2	2	2	NaN	1	4	0.058938015802289	0	1	NaN	222	4	33	2	120	220	320	NaN	520	0.268277964089066	1	1	NaN	1279124.1155261	NaN	1279125.0989296	1279125.61547944
2	21	0	0	90	36.1581920903955	36.241610738255	17	0.566704587945715	2	2	3	NaN	1	5	0.058938015802289	0	1	NaN	223	4	34	2	120	220	320	NaN	520	0.0103959215339273	1	1	NaN	1279126.6990261	NaN	1279127.6825202	1279128.19906258
2	21	0	0	90	36.1581920903955	36.241610738255	25	0.833389099920169	2	10	2	NaN	2	5	0.058938015802289	0	1	NaN	224	4	35	2	120	220	320	NaN	520	0.247242321725935	1	0	NaN	1279129.0326912	NaN	1279130.0160734	1279130.53263908
2	21	0	0	90	36.1581920903955	36.241610738255	24	0.800053535923362	2	3	6	NaN	1	5	0.058938015802289	0	1	NaN	225	4	36	2	120	220	320	NaN	520	0.0562292691320181	1	1	NaN	1279131.5996012	NaN	1279132.5830387	1279133.09955073
2	21	0	0	90	36.1581920903955	36.241610738255	8	0.266684511974454	2	2	5	NaN	1	5	0.058938015802289	0	1	NaN	226	4	37	2	120	220	320	NaN	520	0.0103904216084629	1	1	NaN	1279134.9166105	NaN	1279135.8999912	1279136.41653568
2	21	0	0	90	36.1581920903955	36.241610738255	7	0.233348947977647	2	4	1	NaN	1	5	0.058938015802289	0	1	NaN	227	4	38	2	120	220	320	NaN	520	3.10212622163817	1	1	NaN	1279137.2334736	NaN	1279138.2168679	1279138.73343488
2	21	0	0	90	36.1581920903955	36.241610738255	20	0.666711279936135	2	7	5	NaN	2	4	0.058938015802289	0	1	NaN	228	4	39	2	120	220	320	NaN	520	0.981948121683672	2	1	NaN	1279143.4340703	NaN	1279144.4174856	1279144.93403858
2	21	0	0	90	36.1581920903955	36.241610738255	22	0.733382407929748	2	9	5	NaN	2	3	0.058938015802289	0	1	NaN	229	4	40	2	120	220	320	NaN	520	0.316707621561363	2	1	NaN	1279147.0509938	NaN	1279148.0344964	1279148.55106208
2	21	0	0	90	36.1581920903955	36.241610738255	23	0.766717971926555	2	6	2	NaN	1	3	0.058938015802289	0	1	NaN	230	4	41	2	120	220	320	NaN	520	0.0104162693023682	1	1	NaN	1279149.6847033	NaN	1279150.6680956	1279151.18465723
2	21	0	0	90	36.1581920903955	36.241610738255	19	0.633375715939328	2	11	1	NaN	2	3	0.058938015802289	0	1	NaN	231	4	42	2	120	220	320	NaN	520	0.934286021627486	2	1	NaN	1279152.0016335	NaN	1279152.9849981	1279153.50154868
2	21	0	0	90	36.1581920903955	36.241610738255	0	0	1	11	4	NaN	2	3	0.058938015802289	0	1	NaN	232	4	43	2	110	210	310	NaN	510	0.338325574295595	2	1	NaN	1279155.2851537	NaN	1279156.2686824	1279156.78521583
2	21	0	0	90	36.1581920903955	36.241610738255	22	0.733382407929748	2	1	5	NaN	1	4	0.058938015802289	0	1	NaN	233	4	44	2	120	220	320	NaN	520	0.344082921743393	2	0	NaN	1279157.9355063	NaN	1279158.9189266	1279159.43546698
2	21	0	0	90	36.1581920903955	36.241610738255	20	0.666711279936135	2	3	6	NaN	1	5	0.058938015802289	0	1	NaN	234	4	45	2	120	220	320	NaN	520	0.34967711661011	2	0	NaN	1279160.6024631	NaN	1279161.5858929	1279162.10239098
2	21	0	0	90	36.1581920903955	36.241610738255	12	0.400026767961681	2	3	3	NaN	1	4	0.058938015802289	0	1	NaN	235	4	46	2	120	220	320	NaN	520	0.186657469253987	1	1	NaN	1279163.2693698	NaN	1279164.2527894	1279164.76933073
2	21	0	0	90	36.1581920903955	36.241610738255	11	0.366691203964874	2	5	1	NaN	1	3	0.058938015802289	0	1	NaN	236	4	47	2	120	220	320	NaN	520	0.0104564693756402	1	1	NaN	1279165.7696199	NaN	1279166.7530096	1279167.26956893
2	21	0	0	90	36.1581920903955	36.241610738255	19	0.633375715939328	2	3	3	NaN	1	4	0.058938015802289	0	1	NaN	237	4	48	2	120	220	320	NaN	520	0.122652684571221	1	1	NaN	1279168.4530892	NaN	1279169.4366302	1279169.95316362
2	21	0	0	90	36.1581920903955	36.241610738255	11	0.366691203964874	2	2	3	NaN	1	5	0.058938015802289	0	1	NaN	238	4	49	2	120	220	320	NaN	520	0.192867521662265	1	1	NaN	1279170.886662	NaN	1279171.8701783	1279172.38673318
2	21	0	0	90	36.1581920903955	36.241610738255	25	0.833389099920169	2	6	3	NaN	1	5	0.058938015802289	0	1	NaN	239	4	50	2	120	220	320	NaN	520	0.116862074239179	1	1	NaN	1279173.3870237	NaN	1279174.3704387	1279174.88700873
2	21	0	0	90	36.1581920903955	36.241610738255	25	0.833389099920169	2	7	4	NaN	2	3	0.058938015802289	0	1	NaN	240	4	51	2	120	220	320	NaN	520	0.211065921699628	1	0	NaN	1279175.8205967	NaN	1279176.8039777	1279177.32056038
2	21	0	0	90	36.1581920903955	36.241610738255	17	0.566704587945715	2	2	1	NaN	1	5	0.058938015802289	0	1	NaN	241	4	52	2	120	220	320	NaN	520	0.010392521508038	1	1	NaN	1279178.3374991	NaN	1279179.3209352	1279179.83747648
2	21	0	0	90	36.1581920903955	36.241610738255	16	0.533369023948908	2	8	6	NaN	2	3	0.058938015802289	0	1	NaN	242	4	53	2	120	220	320	NaN	520	0.248744869139045	1	0	NaN	1279180.6710917	NaN	1279181.6544727	1279182.17103833
2	21	0	0	90	36.1581920903955	36.241610738255	21	0.700046843932942	2	9	2	NaN	2	3	0.058938015802289	0	1	NaN	243	4	54	2	120	220	320	NaN	520	0.28201872156933	2	1	NaN	1279183.2380069	NaN	1279184.2213945	1279184.73794848
2	21	0	0	90	36.1581920903955	36.241610738255	21	0.700046843932942	2	1	4	NaN	1	4	0.058938015802289	0	1	NaN	244	4	55	2	120	220	320	NaN	520	0.316580769140273	1	1	NaN	1279185.9714925	NaN	1279186.954994	1279187.47155233
2	21	0	0	90	36.1581920903955	36.241610738255	24	0.800053535923362	2	9	1	NaN	2	4	0.058938015802289	0	1	NaN	245	4	56	2	120	220	320	NaN	520	0.474349421681836	1	0	NaN	1279188.6052031	NaN	1279189.5885804	1279190.10514748
2	21	0	0	90	36.1581920903955	36.241610738255	6	0.20001338398084	2	11	2	NaN	2	5	0.058938015802289	0	1	NaN	246	4	57	2	120	220	320	NaN	520	0.459361516637728	2	1	NaN	1279191.3888062	NaN	1279192.3721893	1279192.88875328
2	21	0	0	90	36.1581920903955	36.241610738255	0	0	1	8	5	NaN	2	4	0.058938015802289	0	1	NaN	247	4	58	2	110	210	310	NaN	510	0.0103911217302084	2	1	NaN	1279194.1557436	NaN	1279195.1391373	1279195.65568658
2	21	0	0	90	36.1581920903955	36.241610738255	7	0.233348947977647	2	4	6	NaN	1	5	0.058938015802289	0	1	NaN	248	4	59	2	120	220	320	NaN	520	0.221245669294149	2	0	NaN	1279196.7226525	NaN	1279197.7060487	1279198.22260623
2	21	0	0	90	36.1581920903955	36.241610738255	11	0.366691203964874	2	8	4	NaN	2	4	0.058938015802289	0	1	NaN	249	4	60	2	120	220	320	NaN	520	0.663901137188077	2	1	NaN	1279199.256233	NaN	1279200.2396445	1279200.75619906
2	21	0	0	90	36.1581920903955	36.241610738255	16	0.533369023948908	2	1	6	NaN	1	4	0.058938015802289	0	1	NaN	250	4	61	2	120	220	320	NaN	520	0.424265021691099	2	0	NaN	1279202.2397338	NaN	1279203.2232884	1279203.73981828
2	21	0	0	90	36.1581920903955	36.241610738255	0	0	1	1	3	NaN	1	5	0.058938015802289	0	1	NaN	251	4	62	2	110	210	310	NaN	510	0.282401921693236	2	0	NaN	1279204.9733289	NaN	1279205.9568783	1279206.47341288
2	21	0	0	90	36.1581920903955	36.241610738255	8	0.266684511974454	2	1	6	NaN	1	4	0.058938015802289	0	1	NaN	252	4	63	2	120	220	320	NaN	520	0.282501474488527	2	0	NaN	1279207.5737241	NaN	1279208.5571337	1279209.07367653
2	21	0	0	90	36.1581920903955	36.241610738255	7	0.233348947977647	2	1	6	NaN	1	3	0.058938015802289	0	1	NaN	253	5	1	2	120	220	320	NaN	520	0.32844807440415	2	0	NaN	1279262.8956812	NaN	1279263.8792098	1279264.39577343
2	21	0	0	90	36.1581920903955	36.241610738255	17	0.566704587945715	2	4	5	NaN	1	5	0.058938015802289	0	1	NaN	254	5	2	2	120	220	320	NaN	520	0.310169321484864	1	1	NaN	1279265.5459747	NaN	1279266.5294744	1279267.04602778
2	21	0	0	90	36.1581920903955	36.241610738255	12	0.400026767961681	2	7	4	NaN	2	5	0.058938015802289	0	1	NaN	255	5	3	2	120	220	320	NaN	520	0.0528920742217451	2	1	NaN	1279268.162993	NaN	1279269.1463923	1279269.66295733
2	21	0	0	90	36.1581920903955	36.241610738255	9	0.300020075971261	2	3	6	NaN	1	3	0.058938015802289	0	1	NaN	256	5	4	2	120	220	320	NaN	520	0.382010069210082	2	0	NaN	1279270.5299038	NaN	1279271.5132925	1279272.02985163
2	21	0	0	90	36.1581920903955	36.241610738255	0	0	1	9	2	NaN	2	4	0.058938015802289	0	1	NaN	257	5	5	2	110	210	310	NaN	510	0.242548121837899	2	1	NaN	1279273.2133879	NaN	1279274.1968946	1279274.71344518
2	21	0	0	90	36.1581920903955	36.241610738255	25	0.833389099920169	2	1	2	NaN	1	5	0.058938015802289	0	1	NaN	258	5	6	2	120	220	320	NaN	520	0.284539621556178	1	1	NaN	1279275.7636248	NaN	1279276.7471821	1279277.26369938
2	21	0	0	90	36.1581920903955	36.241610738255	7	0.233348947977647	2	7	2	NaN	2	4	0.058938015802289	0	1	NaN	259	5	7	2	120	220	320	NaN	520	0.235921074170619	1	0	NaN	1279278.3639953	NaN	1279279.3473955	1279279.86397543
2	21	0	0	90	36.1581920903955	36.241610738255	20	0.666711279936135	2	7	3	NaN	2	4	0.058938015802289	0	1	NaN	260	5	8	2	120	220	320	NaN	520	0.381698821671307	2	1	NaN	1279280.9142498	NaN	1279281.8976502	1279282.41420408
2	21	0	0	90	36.1581920903955	36.241610738255	10	0.333355639968067	2	8	1	NaN	2	3	0.058938015802289	0	1	NaN	261	5	9	2	120	220	320	NaN	520	0.201337674167007	2	1	NaN	1279283.6145147	NaN	1279284.5979164	1279285.11447463
2	21	0	0	90	36.1581920903955	36.241610738255	24	0.800053535923362	2	9	6	NaN	2	4	0.058938015802289	0	1	NaN	262	5	10	2	120	220	320	NaN	520	0.332877742359415	2	1	NaN	1279286.1314271	NaN	1279287.1148262	1279287.63137986
2	21	0	0	90	36.1581920903955	36.241610738255	14	0.466697895955294	2	10	1	NaN	2	4	0.058938015802289	0	1	NaN	263	5	11	2	120	220	320	NaN	520	0.218183121876791	2	1	NaN	1279288.7817021	NaN	1279289.765084	1279290.28164588
2	21	0	0	90	36.1581920903955	36.241610738255	8	0.266684511974454	2	4	2	NaN	1	5	0.058938015802289	0	1	NaN	264	5	12	2	120	220	320	NaN	520	0.236759989755228	1	1	NaN	1279291.3152738	NaN	1279292.2986826	1279292.81522831
2	21	0	0	90	36.1581920903955	36.241610738255	13	0.433362331958488	2	9	1	NaN	2	3	0.058938015802289	0	1	NaN	265	5	13	2	120	220	320	NaN	520	0.166765316622332	2	1	NaN	1279293.8655584	NaN	1279294.8489208	1279295.36547088
2	21	0	0	90	36.1581920903955	36.241610738255	18	0.600040151942521	2	2	6	NaN	1	3	0.058938015802289	0	1	NaN	266	5	14	2	120	220	320	NaN	520	0.266977769322693	1	1	NaN	1279296.3490989	NaN	1279297.3325469	1279297.84904703
2	21	0	0	90	36.1581920903955	36.241610738255	8	0.266684511974454	2	7	6	NaN	2	5	0.058938015802289	0	1	NaN	267	5	15	2	120	220	320	NaN	520	0.204045621678233	2	1	NaN	1279298.9160154	NaN	1279299.8994123	1279300.41596578
2	21	0	0	90	36.1581920903955	36.241610738255	19	0.633375715939328	2	4	5	NaN	1	3	0.058938015802289	0	1	NaN	268	5	16	2	120	220	320	NaN	520	0.0229611217509955	2	0	NaN	1279301.4329244	NaN	1279302.416339	1279302.93289188
2	21	0	0	90	36.1581920903955	36.241610738255	12	0.400026767961681	2	5	3	NaN	1	5	0.058938015802289	0	1	NaN	269	5	17	2	120	220	320	NaN	520	0.21785476943478	1	1	NaN	1279303.7665063	NaN	1279304.7498717	1279305.26645053
2	21	0	0	90	36.1581920903955	36.241610738255	0	0	1	10	6	NaN	2	4	0.058938015802289	0	1	NaN	270	5	18	2	110	210	310	NaN	510	0.235925121465698	2	1	NaN	1279306.3000809	NaN	1279307.2834855	1279307.80003558
2	21	0	0	90	36.1581920903955	36.241610738255	24	0.800053535923362	2	8	2	NaN	2	5	0.058938015802289	0	1	NaN	271	5	19	2	120	220	320	NaN	520	0.24598792148754	2	1	NaN	1279308.8503293	NaN	1279309.8337228	1279310.35027258
2	21	0	0	90	36.1581920903955	36.241610738255	8	0.266684511974454	2	5	3	NaN	1	4	0.058938015802289	0	1	NaN	272	5	20	2	120	220	320	NaN	520	0.0707775217015296	1	1	NaN	1279311.4172434	NaN	1279312.4006834	1279312.91719598
2	21	0	0	90	36.1581920903955	36.241610738255	8	0.266684511974454	2	5	1	NaN	1	4	0.058938015802289	0	1	NaN	273	5	21	2	120	220	320	NaN	520	0.223106221528724	1	1	NaN	1279313.8007986	NaN	1279314.7842053	1279315.30076818
2	21	0	0	90	36.1581920903955	36.241610738255	23	0.766717971926555	2	5	6	NaN	1	5	0.058938015802289	0	1	NaN	274	5	22	2	120	220	320	NaN	520	0.310891769360751	1	1	NaN	1279316.8010825	NaN	1279317.7845158	1279318.30106123
2	21	0	0	90	36.1581920903955	36.241610738255	20	0.666711279936135	2	4	5	NaN	1	3	0.058938015802289	0	1	NaN	275	5	23	2	120	220	320	NaN	520	0.293333121575415	1	1	NaN	1279319.4347003	NaN	1279320.4180919	1279320.93464808
2	21	0	0	90	36.1581920903955	36.241610738255	20	0.666711279936135	2	6	5	NaN	1	4	0.058938015802289	0	1	NaN	276	5	24	2	120	220	320	NaN	520	0.221063142409548	1	1	NaN	1279322.0349555	NaN	1279323.0183622	1279323.53491356
2	21	0	0	90	36.1581920903955	36.241610738255	24	0.800053535923362	2	12	5	NaN	2	4	0.058938015802289	0	1	NaN	277	5	25	2	120	220	320	NaN	520	0.327144021866843	1	0	NaN	1279324.5685368	NaN	1279325.5519348	1279326.06849428
2	21	0	0	90	36.1581920903955	36.241610738255	23	0.766717971926555	2	11	2	NaN	2	5	0.058938015802289	0	1	NaN	278	5	26	2	120	220	320	NaN	520	0.101888221688569	2	1	NaN	1279327.2020138	NaN	1279328.1855425	1279328.70207428
2	21	0	0	90	36.1581920903955	36.241610738255	6	0.20001338398084	2	10	2	NaN	2	3	0.058938015802289	0	1	NaN	279	5	27	2	120	220	320	NaN	520	0.557922321837395	2	1	NaN	1279329.6023647	NaN	1279330.5857615	1279331.10231088
2	21	0	0	90	36.1581920903955	36.241610738255	24	0.800053535923362	2	1	1	NaN	1	5	0.058938015802289	0	1	NaN	280	5	28	2	120	220	320	NaN	520	0.338612369261682	1	1	NaN	1279332.4693132	NaN	1279333.452713	1279333.96925753
2	21	0	0	90	36.1581920903955	36.241610738255	23	0.766717971926555	2	3	3	NaN	1	3	0.058938015802289	0	1	NaN	281	5	29	2	120	220	320	NaN	520	0.240739521570504	1	1	NaN	1279335.1195666	NaN	1279336.1029669	1279336.61953768
2	21	0	0	90	36.1581920903955	36.241610738255	18	0.600040151942521	2	8	2	NaN	2	3	0.058938015802289	0	1	NaN	282	5	30	2	120	220	320	NaN	520	0.322443321580067	2	1	NaN	1279337.6698284	NaN	1279338.6532324	1279339.16977018
2	21	0	0	90	36.1581920903955	36.241610738255	12	0.400026767961681	2	10	4	NaN	2	5	0.058938015802289	0	1	NaN	283	5	31	2	120	220	320	NaN	520	0.424618721706793	2	1	NaN	1279340.3033548	NaN	1279341.2868087	1279341.80336028
2	21	0	0	90	36.1581920903955	36.241610738255	13	0.433362331958488	2	7	4	NaN	2	4	0.058938015802289	0	1	NaN	284	5	32	2	120	220	320	NaN	520	0.69123682146892	2	1	NaN	1279343.037004	NaN	1279344.0203954	1279344.53696488
2	21	0	0	90	36.1581920903955	36.241610738255	6	0.20001338398084	2	5	2	NaN	1	3	0.058938015802289	0	1	NaN	285	5	33	2	120	220	320	NaN	520	0.362788626691326	1	1	NaN	1279346.037207	NaN	1279347.0206816	1279347.53726997
2	21	0	0	90	36.1581920903955	36.241610738255	19	0.633375715939328	2	8	4	NaN	2	5	0.058938015802289	0	1	NaN	286	5	34	2	120	220	320	NaN	520	0.34390312153846	1	0	NaN	1279348.7042263	NaN	1279349.6876382	1279350.20419008
2	21	0	0	90	36.1581920903955	36.241610738255	18	0.600040151942521	2	10	4	NaN	2	4	0.058938015802289	0	1	NaN	287	5	35	2	120	220	320	NaN	520	0.253532184520736	2	1	NaN	1279351.3543692	NaN	1279352.3379038	1279352.85445942
2	21	0	0	90	36.1581920903955	36.241610738255	14	0.466697895955294	2	12	6	NaN	2	3	0.058938015802289	0	1	NaN	288	5	36	2	120	220	320	NaN	520	0.29470243724063	2	1	NaN	1279353.9212933	NaN	1279354.9048428	1279355.42137966
2	21	0	0	90	36.1581920903955	36.241610738255	20	0.666711279936135	2	10	3	NaN	2	4	0.058938015802289	0	1	NaN	289	5	37	2	120	220	320	NaN	520	0.390194374369457	2	1	NaN	1279356.5215615	NaN	1279357.5050483	1279358.02162883
2	21	0	0	90	36.1581920903955	36.241610738255	10	0.333355639968067	2	6	4	NaN	1	3	0.058938015802289	0	1	NaN	290	5	38	2	120	220	320	NaN	520	0.722513116663322	1	1	NaN	1279359.2219302	NaN	1279360.2053214	1279360.72188228
2	21	0	0	90	36.1581920903955	36.241610738255	0	0	1	8	4	NaN	2	3	0.058938015802289	0	1	NaN	291	5	39	2	110	210	310	NaN	510	0.376781221479177	1	0	NaN	1279362.2555793	NaN	1279363.2389609	1279363.75551518
2	21	0	0	90	36.1581920903955	36.241610738255	10	0.333355639968067	2	5	6	NaN	1	4	0.058938015802289	0	1	NaN	292	5	40	2	120	220	320	NaN	520	0.356877969345078	1	1	NaN	1279364.9391669	NaN	1279365.9225675	1279366.43910983
2	21	0	0	90	36.1581920903955	36.241610738255	14	0.466697895955294	2	9	5	NaN	2	5	0.058938015802289	0	1	NaN	293	5	41	2	120	220	320	NaN	520	0.154037964064628	2	1	NaN	1279367.6059668	NaN	1279368.5894651	1279369.10604094
2	21	0	0	90	36.1581920903955	36.241610738255	15	0.500033459952101	2	1	1	NaN	1	4	0.058938015802289	0	1	NaN	294	5	42	2	120	220	320	NaN	520	0.0471398269291967	1	1	NaN	1279370.0729231	NaN	1279371.0563944	1279371.57295567
2	21	0	0	90	36.1581920903955	36.241610738255	21	0.700046843932942	2	2	6	NaN	1	4	0.058938015802289	0	1	NaN	295	5	43	2	120	220	320	NaN	520	0.432233384577557	2	0	NaN	1279372.439902	NaN	1279373.4232971	1279373.93985462
2	21	0	0	90	36.1581920903955	36.241610738255	9	0.300020075971261	2	5	4	NaN	1	3	0.058938015802289	0	1	NaN	296	5	44	2	120	220	320	NaN	520	0.0103955215308815	1	1	NaN	1279375.1734996	NaN	1279376.1569047	1279376.67345628
2	21	0	0	90	36.1581920903955	36.241610738255	25	0.833389099920169	2	8	1	NaN	2	4	0.058938015802289	0	1	NaN	297	5	45	2	120	220	320	NaN	520	0.265088921645656	1	0	NaN	1279378.0071116	NaN	1279378.9905407	1279379.50706068
2	21	0	0	90	36.1581920903955	36.241610738255	22	0.733382407929748	2	9	6	NaN	2	4	0.058938015802289	0	1	NaN	298	5	46	2	120	220	320	NaN	520	0.23354511661455	1	0	NaN	1279380.5907009	NaN	1279381.574092	1279382.09065128
2	21	0	0	90	36.1581920903955	36.241610738255	18	0.600040151942521	2	9	4	NaN	2	5	0.058938015802289	0	1	NaN	299	5	47	2	120	220	320	NaN	520	0.0811726215761155	2	1	NaN	1279383.5909694	NaN	1279384.5743718	1279385.09094538
2	21	0	0	90	36.1581920903955	36.241610738255	24	0.800053535923362	2	5	6	NaN	1	3	0.058938015802289	0	1	NaN	300	5	48	2	120	220	320	NaN	520	0.132720269262791	1	1	NaN	1279386.4912961	NaN	1279387.4746832	1279387.99123713
2	21	0	0	90	36.1581920903955	36.241610738255	14	0.466697895955294	2	12	6	NaN	2	5	0.058938015802289	0	1	NaN	301	5	49	2	120	220	320	NaN	520	0.674649621592835	1	0	NaN	1279388.9414185	NaN	1279389.9249133	1279390.44146988
2	21	0	0	90	36.1581920903955	36.241610738255	23	0.766717971926555	2	5	1	NaN	1	3	0.058938015802289	0	1	NaN	302	5	50	2	120	220	320	NaN	520	0.57882502162829	2	0	NaN	1279391.925004	NaN	1279392.9085503	1279393.42509948
2	21	0	0	90	36.1581920903955	36.241610738255	23	0.766717971926555	2	1	3	NaN	1	5	0.058938015802289	0	1	NaN	303	5	51	2	120	220	320	NaN	520	0.550496321637183	1	1	NaN	1279394.82544	NaN	1279395.8088258	1279396.32539048
2	21	0	0	90	36.1581920903955	36.241610738255	18	0.600040151942521	2	2	6	NaN	1	5	0.058938015802289	0	1	NaN	304	5	52	2	120	220	320	NaN	520	0.390695169335231	2	0	NaN	1279398.2257816	NaN	1279399.2091656	1279399.72571983
2	21	0	0	90	36.1581920903955	36.241610738255	21	0.700046843932942	2	12	4	NaN	2	5	0.058938015802289	0	1	NaN	305	5	53	2	120	220	320	NaN	520	0.322180374292657	2	1	NaN	1279400.9260451	NaN	1279401.909424	1279402.42598943
2	21	0	0	90	36.1581920903955	36.241610738255	11	0.366691203964874	2	6	5	NaN	1	4	0.058938015802289	0	1	NaN	306	5	54	2	120	220	320	NaN	520	0.176698221592233	1	1	NaN	1279403.559615	NaN	1279404.5430058	1279405.05957358
2	21	0	0	90	36.1581920903955	36.241610738255	17	0.566704587945715	2	10	6	NaN	2	5	0.058938015802289	0	1	NaN	307	5	55	2	120	220	320	NaN	520	0.0104145694058388	2	1	NaN	1279406.0432352	NaN	1279407.0265799	1279407.54314633
2	21	0	0	90	36.1581920903955	36.241610738255	14	0.466697895955294	2	10	6	NaN	2	3	0.058938015802289	0	1	NaN	308	5	56	2	120	220	320	NaN	520	1.7121769215446	2	1	NaN	1279408.360122	NaN	1279409.3435031	1279409.86004148
2	21	0	0	90	36.1581920903955	36.241610738255	16	0.533369023948908	2	8	5	NaN	2	4	0.058938015802289	0	1	NaN	309	5	57	2	120	220	320	NaN	520	0.0709566215518862	2	1	NaN	1279412.377155	NaN	1279413.3605398	1279413.87710408
2	21	0	0	90	36.1581920903955	36.241610738255	9	0.300020075971261	2	8	3	NaN	2	4	0.058938015802289	0	1	NaN	310	5	58	2	120	220	320	NaN	520	0.0104318168014288	2	1	NaN	1279414.760708	NaN	1279415.7441291	1279416.26067378
2	21	0	0	90	36.1581920903955	36.241610738255	15	0.500033459952101	2	2	1	NaN	1	3	0.058938015802289	0	1	NaN	311	5	59	2	120	220	320	NaN	520	0.1946837217547	1	1	NaN	1279417.0776264	NaN	1279418.0610107	1279418.57757138
2	21	0	0	90	36.1581920903955	36.241610738255	22	0.733382407929748	2	5	6	NaN	1	3	0.058938015802289	0	1	NaN	312	5	60	2	120	220	320	NaN	520	0.0104117216542363	2	0	NaN	1279419.5778495	NaN	1279420.5612719	1279421.07781818
2	21	0	0	90	36.1581920903955	36.241610738255	14	0.466697895955294	2	5	6	NaN	1	3	0.058938015802289	0	1	NaN	313	5	61	2	120	220	320	NaN	520	0.113511069444939	2	0	NaN	1279421.8946352	NaN	1279422.8781467	1279423.39470643
2	21	0	0	90	36.1581920903955	36.241610738255	17	0.566704587945715	2	6	4	NaN	1	3	0.058938015802289	0	1	NaN	314	5	62	2	120	220	320	NaN	520	0.0104122692719102	1	1	NaN	1279424.9450226	NaN	1279425.9284899	1279426.44500663
2	21	0	0	90	36.1581920903955	36.241610738255	20	0.666711279936135	2	6	1	NaN	1	4	0.058938015802289	0	1	NaN	315	5	63	2	120	220	320	NaN	520	0.1943980215583	1	1	NaN	1279427.2619454	NaN	1279428.2453482	1279428.76190058
2	21	0	0	90	36.1581920903955	36.241610738255	12	0.400026767961681	2	9	4	NaN	2	4	0.058938015802289	0	1	NaN	316	6	1	2	120	220	320	NaN	520	0.0103838741779327	2	1	NaN	1279430.9456241	NaN	1279431.9290692	1279432.44559803
2	21	0	0	90	36.1581920903955	36.241610738255	6	0.20001338398084	2	5	1	NaN	1	5	0.058938015802289	0	1	NaN	317	6	2	2	120	220	320	NaN	520	0.0103946216404438	2	0	NaN	1279433.2625356	NaN	1279434.2459275	1279434.76248898
2	21	0	0	90	36.1581920903955	36.241610738255	14	0.466697895955294	2	8	1	NaN	2	3	0.058938015802289	0	1	NaN	318	6	3	2	120	220	320	NaN	520	0.0103854741901159	2	1	NaN	1279435.5794384	NaN	1279436.5628283	1279437.07939053
2	21	0	0	90	36.1581920903955	36.241610738255	25	0.833389099920169	2	3	4	NaN	1	4	0.058938015802289	0	1	NaN	319	6	4	2	120	220	320	NaN	520	0.368151221890002	1	1	NaN	1279437.8963272	NaN	1279438.8796258	1279439.39628108
2	21	0	0	90	36.1581920903955	36.241610738255	22	0.733382407929748	2	3	2	NaN	1	4	0.058938015802289	0	1	NaN	320	6	5	2	120	220	320	NaN	520	0.0103923217393458	2	0	NaN	1279440.5799173	NaN	1279441.5633318	1279442.07986838
2	21	0	0	90	36.1581920903955	36.241610738255	21	0.700046843932942	2	6	6	NaN	1	5	0.058938015802289	0	1	NaN	321	6	6	2	120	220	320	NaN	520	0.0104276165366173	1	1	NaN	1279442.8968074	NaN	1279443.8802012	1279444.39676238
2	21	0	0	90	36.1581920903955	36.241610738255	9	0.300020075971261	2	9	2	NaN	2	4	0.058938015802289	0	1	NaN	322	6	7	2	120	220	320	NaN	520	0.178489121608436	2	1	NaN	1279445.2135824	NaN	1279446.1971118	1279446.71365688
2	21	0	0	90	36.1581920903955	36.241610738255	12	0.400026767961681	2	12	6	NaN	2	4	0.058938015802289	0	1	NaN	323	6	8	2	120	220	320	NaN	520	0.0104583112988621	2	1	NaN	1279447.6973005	NaN	1279448.6806944	1279449.19723929
2	21	0	0	90	36.1581920903955	36.241610738255	9	0.300020075971261	2	1	1	NaN	1	5	0.058938015802289	0	1	NaN	324	6	9	2	120	220	320	NaN	520	0.0103948216419667	1	1	NaN	1279450.5308699	NaN	1279451.5143179	1279452.03084718
2	21	0	0	90	36.1581920903955	36.241610738255	19	0.633375715939328	2	5	4	NaN	1	5	0.058938015802289	0	1	NaN	325	6	10	2	120	220	320	NaN	520	0.384901316836476	1	1	NaN	1279453.4312143	NaN	1279454.4145584	1279454.93112808
2	21	0	0	90	36.1581920903955	36.241610738255	20	0.666711279936135	2	8	2	NaN	2	4	0.058938015802289	0	1	NaN	326	6	11	2	120	220	320	NaN	520	0.308624274330214	1	0	NaN	1279456.1314443	NaN	1279457.1148399	1279457.63140783
2	21	0	0	90	36.1581920903955	36.241610738255	0	0	1	6	1	NaN	1	3	0.058938015802289	0	1	NaN	327	6	12	2	110	210	310	NaN	510	0.0105208165477961	1	1	NaN	1279458.7483649	NaN	1279459.7317769	1279460.24834578
2	21	0	0	90	36.1581920903955	36.241610738255	9	0.300020075971261	2	4	1	NaN	1	3	0.058938015802289	0	1	NaN	328	6	13	2	120	220	320	NaN	520	0.278294121846557	2	0	NaN	1279461.0819354	NaN	1279462.0653279	1279462.58189978
2	21	0	0	90	36.1581920903955	36.241610738255	8	0.266684511974454	2	11	5	NaN	2	4	0.058938015802289	0	1	NaN	329	6	14	2	120	220	320	NaN	520	0.0103673269040883	2	1	NaN	1279463.6655147	NaN	1279464.6489396	1279465.16547417
2	21	0	0	90	36.1581920903955	36.241610738255	16	0.533369023948908	2	1	4	NaN	1	3	0.058938015802289	0	1	NaN	330	6	15	2	120	220	320	NaN	520	0.0103976216632873	1	1	NaN	1279465.9824027	NaN	1279466.9658032	1279467.48237118
2	21	0	0	90	36.1581920903955	36.241610738255	22	0.733382407929748	2	2	4	NaN	1	4	0.058938015802289	0	1	NaN	331	6	16	2	120	220	320	NaN	520	0.180957521544769	1	1	NaN	1279468.2993098	NaN	1279469.2827171	1279469.79925918
2	21	0	0	90	36.1581920903955	36.241610738255	17	0.566704587945715	2	8	6	NaN	2	3	0.058938015802289	0	1	NaN	332	6	17	2	120	220	320	NaN	520	0.0104155694134533	2	1	NaN	1279470.7995431	NaN	1279471.782949	1279472.29950413
2	21	0	0	90	36.1581920903955	36.241610738255	12	0.400026767961681	2	10	6	NaN	2	5	0.058938015802289	0	1	NaN	333	6	18	2	120	220	320	NaN	520	0.40380152175203	2	1	NaN	1279473.1164486	NaN	1279474.0998534	1279474.61639778
2	21	0	0	90	36.1581920903955	36.241610738255	22	0.733382407929748	2	8	1	NaN	2	5	0.058938015802289	0	1	NaN	334	6	19	2	120	220	320	NaN	520	0.199198294896632	2	1	NaN	1279475.8333704	NaN	1279476.816782	1279477.33334311
2	21	0	0	90	36.1581920903955	36.241610738255	10	0.333355639968067	2	4	1	NaN	1	3	0.058938015802289	0	1	NaN	335	6	20	2	120	220	320	NaN	520	0.242753421654925	1	1	NaN	1279478.3336634	NaN	1279479.3170407	1279479.83357548
2	21	0	0	90	36.1581920903955	36.241610738255	25	0.833389099920169	2	2	4	NaN	1	4	0.058938015802289	0	1	NaN	336	6	21	2	120	220	320	NaN	520	0.26042992179282	1	1	NaN	1279480.8838574	NaN	1279481.8672691	1279482.38382458
2	21	0	0	90	36.1581920903955	36.241610738255	17	0.566704587945715	2	6	5	NaN	1	5	0.058938015802289	0	1	NaN	337	6	22	2	120	220	320	NaN	520	0.0104172693099827	1	1	NaN	1279483.5841364	NaN	1279484.5675412	1279485.08409223
2	21	0	0	90	36.1581920903955	36.241610738255	13	0.433362331958488	2	3	4	NaN	1	3	0.058938015802289	0	1	NaN	338	6	23	2	120	220	320	NaN	520	0.171172874281183	2	0	NaN	1279485.9009201	NaN	1279486.8844632	1279487.40099443
2	21	0	0	90	36.1581920903955	36.241610738255	7	0.233348947977647	2	11	5	NaN	2	3	0.058938015802289	0	1	NaN	339	6	24	2	120	220	320	NaN	520	0.159909674432129	2	1	NaN	1279488.384601	NaN	1279489.3680143	1279489.88456093
2	21	0	0	90	36.1581920903955	36.241610738255	7	0.233348947977647	2	9	5	NaN	2	4	0.058938015802289	0	1	NaN	340	6	25	2	120	220	320	NaN	520	0.0103978216648102	2	1	NaN	1279490.8515429	NaN	1279491.8349166	1279492.35147188
2	21	0	0	90	36.1581920903955	36.241610738255	18	0.600040151942521	2	6	1	NaN	1	3	0.058938015802289	0	1	NaN	341	6	26	2	120	220	320	NaN	520	0.0103915217332542	1	1	NaN	1279493.1684091	NaN	1279494.1518167	1279494.66836278
2	21	0	0	90	36.1581920903955	36.241610738255	18	0.600040151942521	2	12	5	NaN	2	3	0.058938015802289	0	1	NaN	342	6	27	2	120	220	320	NaN	520	0.010396521538496	2	1	NaN	1279495.4851654	NaN	1279496.4687207	1279496.98526738
2	21	0	0	90	36.1581920903955	36.241610738255	7	0.233348947977647	2	3	4	NaN	1	3	0.058938015802289	0	1	NaN	343	6	28	2	120	220	320	NaN	520	0.286328474292532	1	1	NaN	1279497.8022048	NaN	1279498.7856113	1279499.30215773
2	21	0	0	90	36.1581920903955	36.241610738255	17	0.566704587945715	2	4	2	NaN	1	5	0.058938015802289	0	1	NaN	344	6	29	2	120	220	320	NaN	520	0.0103809745050967	1	1	NaN	1279500.4024749	NaN	1279501.3858583	1279501.90242663
2	21	0	0	90	36.1581920903955	36.241610738255	7	0.233348947977647	2	6	2	NaN	1	4	0.058938015802289	0	1	NaN	345	6	30	2	120	220	320	NaN	520	0.864953364012763	1	1	NaN	1279502.719343	NaN	1279503.7027544	1279504.21930524
2	21	0	0	90	36.1581920903955	36.241610738255	17	0.566704587945715	2	7	6	NaN	2	5	0.058938015802289	0	1	NaN	346	6	31	2	120	220	320	NaN	520	0.697498469380662	2	1	NaN	1279505.9029954	NaN	1279506.8862968	1279507.40294973
2	21	0	0	90	36.1581920903955	36.241610738255	0	0	1	7	3	NaN	2	4	0.058938015802289	0	1	NaN	347	6	32	2	110	210	310	NaN	510	0.352613921742886	2	1	NaN	1279508.9199567	NaN	1279509.9033614	1279510.41991728
2	21	0	0	90	36.1581920903955	36.241610738255	18	0.600040151942521	2	5	3	NaN	1	5	0.058938015802289	0	1	NaN	348	6	33	2	120	220	320	NaN	520	0.293371021747589	2	0	NaN	1279511.5868915	NaN	1279512.5702848	1279513.08684448
2	21	0	0	90	36.1581920903955	36.241610738255	14	0.466697895955294	2	4	5	NaN	1	5	0.058938015802289	0	1	NaN	349	6	34	2	120	220	320	NaN	520	0.261083121644333	1	1	NaN	1279514.1871291	NaN	1279515.1705444	1279515.68709538
2	21	0	0	90	36.1581920903955	36.241610738255	6	0.20001338398084	2	1	4	NaN	1	4	0.058938015802289	0	1	NaN	350	6	35	2	120	220	320	NaN	520	0.277543021598831	1	1	NaN	1279516.7707322	NaN	1279517.7541205	1279518.27067868
2	21	0	0	90	36.1581920903955	36.241610738255	14	0.466697895955294	2	6	3	NaN	1	4	0.058938015802289	0	1	NaN	351	6	36	2	120	220	320	NaN	520	0.0933120693080127	1	1	NaN	1279519.3709915	NaN	1279520.3543979	1279520.87094123
2	21	0	0	90	36.1581920903955	36.241610738255	8	0.266684511974454	2	12	3	NaN	2	3	0.058938015802289	0	1	NaN	352	6	37	2	120	220	320	NaN	520	0.244858521735296	2	1	NaN	1279521.7712203	NaN	1279522.7546223	1279523.27117338
2	21	0	0	90	36.1581920903955	36.241610738255	11	0.366691203964874	2	4	3	NaN	1	4	0.058938015802289	0	1	NaN	353	6	38	2	120	220	320	NaN	520	0.0868637214880437	1	1	NaN	1279524.3214711	NaN	1279525.304874	1279525.82142628
2	21	0	0	90	36.1581920903955	36.241610738255	20	0.666711279936135	2	2	2	NaN	1	5	0.058938015802289	0	1	NaN	354	6	39	2	120	220	320	NaN	520	0.310543274274096	2	0	NaN	1279526.721707	NaN	1279527.7051007	1279528.22167013
2	21	0	0	90	36.1581920903955	36.241610738255	14	0.466697895955294	2	2	2	NaN	1	4	0.058938015802289	0	1	NaN	355	6	40	2	120	220	320	NaN	520	0.198046869365498	1	1	NaN	1279529.3386478	NaN	1279530.3220588	1279530.83858423
2	21	0	0	90	36.1581920903955	36.241610738255	17	0.566704587945715	2	8	3	NaN	2	4	0.058938015802289	0	1	NaN	356	6	41	2	120	220	320	NaN	520	0.16169902170077	2	1	NaN	1279531.8388832	NaN	1279532.8222923	1279533.33882608
2	21	0	0	90	36.1581920903955	36.241610738255	10	0.333355639968067	2	3	5	NaN	1	5	0.058938015802289	0	1	NaN	357	6	42	2	120	220	320	NaN	520	0.126616121735424	1	1	NaN	1279534.3057914	NaN	1279535.2891649	1279535.80573798
2	21	0	0	90	36.1581920903955	36.241610738255	8	0.266684511974454	2	10	3	NaN	2	5	0.058938015802289	0	1	NaN	358	6	43	2	120	220	320	NaN	520	0.0130182693246752	1	0	NaN	1279536.7393598	NaN	1279537.7227584	1279538.23931793
2	21	0	0	90	36.1581920903955	36.241610738255	10	0.333355639968067	2	12	2	NaN	2	4	0.058938015802289	0	1	NaN	359	6	44	2	120	220	320	NaN	520	0.0104534639976919	2	1	NaN	1279539.7062045	NaN	1279540.6897307	1279541.20626884
2	21	0	0	90	36.1581920903955	36.241610738255	11	0.366691203964874	2	11	2	NaN	2	3	0.058938015802289	0	1	NaN	360	6	45	2	120	220	320	NaN	520	0.128890321590006	2	1	NaN	1279542.0232216	NaN	1279543.0066295	1279543.52316038
2	21	0	0	90	36.1581920903955	36.241610738255	12	0.400026767961681	2	1	4	NaN	1	4	0.058938015802289	0	1	NaN	361	6	46	2	120	220	320	NaN	520	0.287427321542054	2	0	NaN	1279544.4566627	NaN	1279545.4401803	1279545.95673478
2	21	0	0	90	36.1581920903955	36.241610738255	19	0.633375715939328	2	12	2	NaN	2	3	0.058938015802289	0	1	NaN	362	6	47	2	120	220	320	NaN	520	0.615532474359497	2	1	NaN	1279547.0570329	NaN	1279548.0404183	1279548.55699753
2	21	0	0	90	36.1581920903955	36.241610738255	24	0.800053535923362	2	6	2	NaN	1	4	0.058938015802289	0	1	NaN	363	6	48	2	120	220	320	NaN	520	0.0104036217089742	1	1	NaN	1279549.9739879	NaN	1279550.9573844	1279551.47394058
2	21	0	0	90	36.1581920903955	36.241610738255	18	0.600040151942521	2	3	4	NaN	1	3	0.058938015802289	0	1	NaN	364	6	49	2	120	220	320	NaN	520	0.0103903214912862	1	1	NaN	1279552.2909041	NaN	1279553.2742601	1279553.79083078
2	21	0	0	90	36.1581920903955	36.241610738255	15	0.500033459952101	2	10	4	NaN	2	5	0.058938015802289	0	1	NaN	365	6	50	2	120	220	320	NaN	520	0.40889226924628	2	1	NaN	1279554.6078303	NaN	1279555.591181	1279556.10772663
2	21	0	0	90	36.1581920903955	36.241610738255	10	0.333355639968067	2	3	5	NaN	1	4	0.058938015802289	0	1	NaN	366	6	51	2	120	220	320	NaN	520	0.0104030217044055	1	1	NaN	1279557.3247095	NaN	1279558.3081179	1279558.82466808
2	21	0	0	90	36.1581920903955	36.241610738255	11	0.366691203964874	2	3	3	NaN	1	4	0.058938015802289	0	1	NaN	367	6	52	2	120	220	320	NaN	520	0.910997421713546	1	1	NaN	1279559.6415947	NaN	1279560.6250078	1279561.14156138
2	21	0	0	90	36.1581920903955	36.241610738255	24	0.800053535923362	2	7	1	NaN	2	4	0.058938015802289	0	1	NaN	368	6	53	2	120	220	320	NaN	520	0.230092274257913	2	1	NaN	1279562.8585622	NaN	1279563.8419746	1279564.35854453
2	21	0	0	90	36.1581920903955	36.241610738255	21	0.700046843932942	2	2	1	NaN	1	5	0.058938015802289	0	1	NaN	369	6	54	2	120	220	320	NaN	520	0.0104265166446567	1	1	NaN	1279565.4087414	NaN	1279566.3922443	1279566.90878788
2	21	0	0	90	36.1581920903955	36.241610738255	18	0.600040151942521	2	4	3	NaN	1	5	0.058938015802289	0	1	NaN	370	6	55	2	120	220	320	NaN	520	0.122040569316596	1	1	NaN	1279567.7423953	NaN	1279568.7258052	1279569.24234763
2	21	0	0	90	36.1581920903955	36.241610738255	24	0.800053535923362	2	5	1	NaN	1	5	0.058938015802289	0	1	NaN	371	6	56	2	120	220	320	NaN	520	0.256252669263631	1	1	NaN	1279570.1759659	NaN	1279571.1593747	1279571.67592033
2	21	0	0	90	36.1581920903955	36.241610738255	24	0.800053535923362	2	4	1	NaN	1	3	0.058938015802289	0	1	NaN	372	6	57	2	120	220	320	NaN	520	0.0103899741079658	1	1	NaN	1279572.7429051	NaN	1279573.7262994	1279574.24285313
2	21	0	0	90	36.1581920903955	36.241610738255	10	0.333355639968067	2	7	1	NaN	2	3	0.058938015802289	0	1	NaN	373	6	58	2	120	220	320	NaN	520	0.0103953217621893	1	0	NaN	1279575.0598045	NaN	1279576.043181	1279576.55973638
2	21	0	0	90	36.1581920903955	36.241610738255	10	0.333355639968067	2	10	1	NaN	2	4	0.058938015802289	0	1	NaN	374	6	59	2	120	220	320	NaN	520	0.270952821709216	2	1	NaN	1279577.3933591	NaN	1279578.3766407	1279578.89330148
2	21	0	0	90	36.1581920903955	36.241610738255	20	0.666711279936135	2	12	6	NaN	2	3	0.058938015802289	0	1	NaN	375	6	60	2	120	220	320	NaN	520	0.0103181845042855	1	0	NaN	1279580.6269817	NaN	1279581.6104071	1279582.12696172
2	21	0	0	90	36.1581920903955	36.241610738255	8	0.266684511974454	2	8	5	NaN	2	3	0.058938015802289	0	1	NaN	376	6	61	2	120	220	320	NaN	520	0.0104183692019433	2	1	NaN	1279582.9605728	NaN	1279583.943875	1279584.46050813
2	21	0	0	90	36.1581920903955	36.241610738255	8	0.266684511974454	2	9	5	NaN	2	5	0.058938015802289	0	1	NaN	377	6	62	2	120	220	320	NaN	520	0.010397921781987	2	1	NaN	1279585.2774481	NaN	1279586.2608485	1279586.77741028
2	21	0	0	90	36.1581920903955	36.241610738255	0	0	1	5	2	NaN	1	3	0.058938015802289	0	1	NaN	378	6	63	2	110	210	310	NaN	510	0.0192664063069969	1	1	NaN	1279587.6610263	NaN	1279588.6444152	1279589.16097219
2	21	0	0	90	36.1581920903955	36.241610738255	21	0.700046843932942	2	5	5	NaN	1	3	0.058938015802289	0	1	NaN	379	7	1	2	120	220	320	NaN	520	0.2861955948174	1	1	NaN	1279654.6341301	NaN	1279655.6176545	1279656.13422171
2	21	0	0	90	36.1581920903955	36.241610738255	10	0.333355639968067	2	1	2	NaN	1	3	0.058938015802289	0	1	NaN	380	7	2	2	120	220	320	NaN	520	0.0103762741200626	1	1	NaN	1279657.2344972	NaN	1279658.2179163	1279658.73447673
2	21	0	0	90	36.1581920903955	36.241610738255	9	0.300020075971261	2	11	6	NaN	2	5	0.058938015802289	0	1	NaN	381	7	3	2	120	220	320	NaN	520	0.289156274171546	2	1	NaN	1279659.5514086	NaN	1279660.5347422	1279661.05136973
2	21	0	0	90	36.1581920903955	36.241610738255	0	0	1	2	2	NaN	1	4	0.058938015802289	0	1	NaN	382	7	4	2	110	210	310	NaN	510	0.0104422215372324	2	0	NaN	1279662.1516808	NaN	1279663.135069	1279663.65162048
2	21	0	0	90	36.1581920903955	36.241610738255	12	0.400026767961681	2	1	4	NaN	1	3	0.058938015802289	0	1	NaN	383	7	5	2	120	220	320	NaN	520	0.0443239216692746	2	0	NaN	1279664.4685617	NaN	1279665.451952	1279665.96850608
2	21	0	0	90	36.1581920903955	36.241610738255	8	0.266684511974454	2	4	2	NaN	1	4	0.058938015802289	0	1	NaN	384	7	6	2	120	220	320	NaN	520	0.0104286691639572	1	1	NaN	1279666.8186454	NaN	1279667.8021927	1279668.31873743
2	21	0	0	90	36.1581920903955	36.241610738255	6	0.20001338398084	2	9	3	NaN	2	4	0.058938015802289	0	1	NaN	385	7	7	2	120	220	320	NaN	520	0.0103909214958549	2	1	NaN	1279669.135684	NaN	1279670.1190767	1279670.63564678
2	21	0	0	90	36.1581920903955	36.241610738255	10	0.333355639968067	2	9	1	NaN	2	3	0.058938015802289	0	1	NaN	386	7	8	2	120	220	320	NaN	520	0.0104206167161465	2	1	NaN	1279671.4525168	NaN	1279672.4359923	1279672.95252888
2	21	0	0	90	36.1581920903955	36.241610738255	22	0.733382407929748	2	12	1	NaN	2	4	0.058938015802289	0	1	NaN	387	7	9	2	120	220	320	NaN	520	0.199226121651009	2	1	NaN	1279673.7694686	NaN	1279674.752845	1279675.26941898
2	21	0	0	90	36.1581920903955	36.241610738255	12	0.400026767961681	2	5	4	NaN	1	5	0.058938015802289	0	1	NaN	388	7	10	2	120	220	320	NaN	520	0.010408321628347	2	0	NaN	1279676.2863799	NaN	1279677.2696833	1279677.78633898
2	21	0	0	90	36.1581920903955	36.241610738255	8	0.266684511974454	2	12	5	NaN	2	4	0.058938015802289	0	1	NaN	389	7	11	2	120	220	320	NaN	520	1.09326567430981	2	1	NaN	1279678.6032728	NaN	1279679.5866725	1279680.10324063
2	21	0	0	90	36.1581920903955	36.241610738255	7	0.233348947977647	2	11	1	NaN	2	3	0.058938015802289	0	1	NaN	390	7	12	2	120	220	320	NaN	520	0.332866221666336	2	1	NaN	1279682.0036116	NaN	1279682.9870144	1279683.50356328
2	21	0	0	90	36.1581920903955	36.241610738255	13	0.433362331958488	2	8	6	NaN	2	5	0.058938015802289	0	1	NaN	391	7	13	2	120	220	320	NaN	520	0.0104094215203077	1	0	NaN	1279684.6538834	NaN	1279685.6373008	1279686.15382788
2	21	0	0	90	36.1581920903955	36.241610738255	24	0.800053535923362	2	8	6	NaN	2	3	0.058938015802289	0	1	NaN	392	7	14	2	120	220	320	NaN	520	0.0103952216450125	2	1	NaN	1279686.9707859	NaN	1279687.9541814	1279688.47072088
2	21	0	0	90	36.1581920903955	36.241610738255	24	0.800053535923362	2	4	3	NaN	1	4	0.058938015802289	0	1	NaN	393	7	15	2	120	220	320	NaN	520	0.569133894750848	1	1	NaN	1279689.2875406	NaN	1279690.2710674	1279690.78762301
2	21	0	0	90	36.1581920903955	36.241610738255	23	0.766717971926555	2	12	3	NaN	2	3	0.058938015802289	0	1	NaN	394	7	16	2	120	220	320	NaN	520	0.109271921683103	1	0	NaN	1279692.1712842	NaN	1279693.1546884	1279693.67122588
2	21	0	0	90	36.1581920903955	36.241610738255	22	0.733382407929748	2	12	1	NaN	2	3	0.058938015802289	0	1	NaN	395	7	17	2	120	220	320	NaN	520	0.380576921626925	1	0	NaN	1279694.5882531	NaN	1279695.5716153	1279696.08812988
2	21	0	0	90	36.1581920903955	36.241610738255	13	0.433362331958488	2	2	5	NaN	1	5	0.058938015802289	0	1	NaN	396	7	18	2	120	220	320	NaN	520	0.13602972170338	1	1	NaN	1279697.2884552	NaN	1279698.2718507	1279698.78840318
2	21	0	0	90	36.1581920903955	36.241610738255	16	0.533369023948908	2	12	4	NaN	2	4	0.058938015802289	0	1	NaN	397	7	19	2	120	220	320	NaN	520	0.589806821662933	1	0	NaN	1279699.738684	NaN	1279700.7220858	1279701.23863388
2	21	0	0	90	36.1581920903955	36.241610738255	9	0.300020075971261	2	2	3	NaN	1	5	0.058938015802289	0	1	NaN	398	7	20	2	120	220	320	NaN	520	0.225950621534139	1	1	NaN	1279702.6389728	NaN	1279703.622364	1279704.13891898
2	21	0	0	90	36.1581920903955	36.241610738255	17	0.566704587945715	2	3	2	NaN	1	3	0.058938015802289	0	1	NaN	399	7	21	2	120	220	320	NaN	520	0.0103954216465354	1	1	NaN	1279705.1725601	NaN	1279706.1559476	1279706.67249948
2	21	0	0	90	36.1581920903955	36.241610738255	25	0.833389099920169	2	9	6	NaN	2	4	0.058938015802289	0	1	NaN	400	7	22	2	120	220	320	NaN	520	0.103045369265601	2	1	NaN	1279707.4894109	NaN	1279708.4728536	1279708.98939573
2	21	0	0	90	36.1581920903955	36.241610738255	11	0.366691203964874	2	1	4	NaN	1	5	0.058938015802289	0	1	NaN	401	7	23	2	120	220	320	NaN	520	0.166163021698594	2	0	NaN	1279709.9062048	NaN	1279710.8897351	1279711.40630678
2	21	0	0	90	36.1581920903955	36.241610738255	15	0.500033459952101	2	11	2	NaN	2	3	0.058938015802289	0	1	NaN	402	7	24	2	120	220	320	NaN	520	0.289374521700665	2	1	NaN	1279712.4231875	NaN	1279713.4066546	1279713.92321658
2	21	0	0	90	36.1581920903955	36.241610738255	19	0.633375715939328	2	6	3	NaN	1	4	0.058938015802289	0	1	NaN	403	7	25	2	120	220	320	NaN	520	0.0104264167603105	1	1	NaN	1279715.0235308	NaN	1279716.0069161	1279716.52346838
2	21	0	0	90	36.1581920903955	36.241610738255	6	0.20001338398084	2	9	6	NaN	2	5	0.058938015802289	0	1	NaN	404	7	26	2	120	220	320	NaN	520	0.106065021827817	2	1	NaN	1279717.7904285	NaN	1279718.7738851	1279719.29040698
2	21	0	0	90	36.1581920903955	36.241610738255	24	0.800053535923362	2	6	6	NaN	1	4	0.058938015802289	0	1	NaN	405	7	27	2	120	220	320	NaN	520	0.0103773742448539	1	1	NaN	1279720.2073641	NaN	1279721.1907477	1279721.70732313
2	21	0	0	90	36.1581920903955	36.241610738255	21	0.700046843932942	2	12	6	NaN	2	3	0.058938015802289	0	1	NaN	406	7	28	2	120	220	320	NaN	520	0.244378121569753	1	0	NaN	1279722.5242767	NaN	1279723.5076577	1279724.02420788
2	21	0	0	90	36.1581920903955	36.241610738255	20	0.666711279936135	2	9	3	NaN	2	5	0.058938015802289	0	1	NaN	407	7	29	2	120	220	320	NaN	520	0.0104013215750456	1	0	NaN	1279725.5744182	NaN	1279726.5579522	1279727.07450808
2	21	0	0	90	36.1581920903955	36.241610738255	17	0.566704587945715	2	3	6	NaN	1	3	0.058938015802289	0	1	NaN	408	7	30	2	120	220	320	NaN	520	0.0103950216434896	1	1	NaN	1279728.3580292	NaN	1279729.3415849	1279729.85811488
2	21	0	0	90	36.1581920903955	36.241610738255	14	0.466697895955294	2	11	4	NaN	2	5	0.058938015802289	0	1	NaN	409	7	31	2	120	220	320	NaN	520	0.253178221639246	2	1	NaN	1279730.6917326	NaN	1279731.6751195	1279732.19167138
2	21	0	0	90	36.1581920903955	36.241610738255	23	0.766717971926555	2	7	2	NaN	2	3	0.058938015802289	0	1	NaN	410	7	32	2	120	220	320	NaN	520	0.0104056692216545	1	0	NaN	1279733.2586311	NaN	1279734.2420458	1279734.75858933
2	21	0	0	90	36.1581920903955	36.241610738255	7	0.233348947977647	2	8	4	NaN	2	5	0.058938015802289	0	1	NaN	411	7	33	2	120	220	320	NaN	520	0.191336921649054	1	0	NaN	1279736.0255575	NaN	1279737.0089773	1279737.52553008
2	21	0	0	90	36.1581920903955	36.241610738255	12	0.400026767961681	2	3	1	NaN	1	4	0.058938015802289	0	1	NaN	412	7	34	2	120	220	320	NaN	520	0.418652021558955	2	0	NaN	1279738.5257115	NaN	1279739.5092238	1279740.02578238
2	21	0	0	90	36.1581920903955	36.241610738255	14	0.466697895955294	2	4	4	NaN	1	5	0.058938015802289	0	1	NaN	413	7	35	2	120	220	320	NaN	520	0.0105002063792199	1	1	NaN	1279741.2594408	NaN	1279742.2428324	1279742.75937599
2	21	0	0	90	36.1581920903955	36.241610738255	13	0.433362331958488	2	12	1	NaN	2	3	0.058938015802289	0	1	NaN	414	7	36	2	120	220	320	NaN	520	3.7577984216623	2	1	NaN	1279744.6424256	NaN	1279745.6264989	1279746.14304418
2	21	0	0	90	36.1581920903955	36.241610738255	0	0	1	12	5	NaN	2	3	0.058938015802289	0	1	NaN	415	7	37	2	110	210	310	NaN	510	0.59914862154983	2	1	NaN	1279751.1936312	NaN	1279752.1771284	1279752.69368678
2	21	0	0	90	36.1581920903955	36.241610738255	17	0.566704587945715	2	9	4	NaN	2	4	0.058938015802289	0	1	NaN	416	7	38	2	120	220	320	NaN	520	0.369862269377336	1	0	NaN	1279754.1106961	NaN	1279755.0940975	1279755.61063733
2	21	0	0	90	36.1581920903955	36.241610738255	25	0.833389099920169	2	11	6	NaN	2	4	0.058938015802289	0	1	NaN	417	7	39	2	120	220	320	NaN	520	0.0943241168279201	2	1	NaN	1279756.7943102	NaN	1279757.7776959	1279758.29423048
2	21	0	0	90	36.1581920903955	36.241610738255	11	0.366691203964874	2	6	1	NaN	1	4	0.058938015802289	0	1	NaN	418	7	40	2	120	220	320	NaN	520	0.238316421629861	1	1	NaN	1279759.1945176	NaN	1279760.1779205	1279760.69447238
2	21	0	0	90	36.1581920903955	36.241610738255	11	0.366691203964874	2	8	1	NaN	2	5	0.058938015802289	0	1	NaN	419	7	41	2	120	220	320	NaN	520	0.319885274395347	2	1	NaN	1279761.7447691	NaN	1279762.7281629	1279763.24473193
2	21	0	0	90	36.1581920903955	36.241610738255	14	0.466697895955294	2	1	3	NaN	1	5	0.058938015802289	0	1	NaN	420	7	42	2	120	220	320	NaN	520	0.302320669405162	2	0	NaN	1279764.3783841	NaN	1279765.3617695	1279765.87832003
2	21	0	0	90	36.1581920903955	36.241610738255	10	0.333355639968067	2	10	2	NaN	2	4	0.058938015802289	0	1	NaN	421	7	43	2	120	220	320	NaN	520	0.212196969194338	2	1	NaN	1279767.2286369	NaN	1279768.2120493	1279768.72859843
2	21	0	0	90	36.1581920903955	36.241610738255	16	0.533369023948908	2	6	2	NaN	1	4	0.058938015802289	0	1	NaN	422	7	44	2	120	220	320	NaN	520	0.254357421537861	1	1	NaN	1279769.7622423	NaN	1279770.7456242	1279771.26217498
2	21	0	0	90	36.1581920903955	36.241610738255	8	0.266684511974454	2	11	3	NaN	2	3	0.058938015802289	0	1	NaN	423	7	45	2	120	220	320	NaN	520	1.08417162182741	2	1	NaN	1279772.8124839	NaN	1279773.7959193	1279774.31247168
2	21	0	0	90	36.1581920903955	36.241610738255	25	0.833389099920169	2	5	6	NaN	1	5	0.058938015802289	0	1	NaN	424	7	46	2	120	220	320	NaN	520	0.154671169351786	1	1	NaN	1279776.846244	NaN	1279777.829669	1279778.34619963
2	21	0	0	90	36.1581920903955	36.241610738255	12	0.400026767961681	2	6	5	NaN	1	3	0.058938015802289	0	1	NaN	425	7	47	2	120	220	320	NaN	520	0.311530121602118	1	1	NaN	1279779.3131546	NaN	1279780.2965683	1279780.81311338
2	21	0	0	90	36.1581920903955	36.241610738255	23	0.766717971926555	2	11	5	NaN	2	5	0.058938015802289	0	1	NaN	426	7	48	2	120	220	320	NaN	520	0.382854521740228	1	0	NaN	1279781.9300848	NaN	1279782.9134781	1279783.43004208
2	21	0	0	90	36.1581920903955	36.241610738255	19	0.633375715939328	2	8	3	NaN	2	4	0.058938015802289	0	1	NaN	427	7	49	2	120	220	320	NaN	520	0.218465421814471	1	0	NaN	1279784.630354	NaN	1279785.6137342	1279786.13030598
2	21	0	0	90	36.1581920903955	36.241610738255	15	0.500033459952101	2	5	5	NaN	1	5	0.058938015802289	0	1	NaN	428	7	50	2	120	220	320	NaN	520	0.196588369319215	1	1	NaN	1279787.1639395	NaN	1279788.1473166	1279788.66388903
2	21	0	0	90	36.1581920903955	36.241610738255	22	0.733382407929748	2	5	6	NaN	1	4	0.058938015802289	0	1	NaN	429	7	51	2	120	220	320	NaN	520	0.0103947215247899	1	1	NaN	1279789.664181	NaN	1279790.6475766	1279791.16412528
2	21	0	0	90	36.1581920903955	36.241610738255	14	0.466697895955294	2	2	3	NaN	1	3	0.058938015802289	0	1	NaN	430	7	52	2	120	220	320	NaN	520	0.0104134692810476	1	1	NaN	1279791.9977487	NaN	1279792.9811441	1279793.49769323
2	21	0	0	90	36.1581920903955	36.241610738255	17	0.566704587945715	2	11	4	NaN	2	5	0.058938015802289	0	1	NaN	431	7	53	2	120	220	320	NaN	520	0.0103963217698038	2	1	NaN	1279794.5313269	NaN	1279795.5147606	1279796.03127398
2	21	0	0	90	36.1581920903955	36.241610738255	6	0.20001338398084	2	10	3	NaN	2	3	0.058938015802289	0	1	NaN	432	7	54	2	120	220	320	NaN	520	0.0104004216846079	2	1	NaN	1279796.848216	NaN	1279797.8316091	1279798.34816318
2	21	0	0	90	36.1581920903955	36.241610738255	19	0.633375715939328	2	9	5	NaN	2	3	0.058938015802289	0	1	NaN	433	7	55	2	120	220	320	NaN	520	0.0103850744199008	2	1	NaN	1279799.1651198	NaN	1279800.148507	1279800.66505963
2	21	0	0	90	36.1581920903955	36.241610738255	14	0.466697895955294	2	9	6	NaN	2	3	0.058938015802289	0	1	NaN	434	7	56	2	120	220	320	NaN	520	0.150539869442582	2	1	NaN	1279801.4820074	NaN	1279802.4654137	1279802.98195793
2	21	0	0	90	36.1581920903955	36.241610738255	0	0	1	10	5	NaN	2	3	0.058938015802289	0	1	NaN	435	7	57	2	110	210	310	NaN	510	0.0104067691136152	2	1	NaN	1279803.9489263	NaN	1279804.9323428	1279805.44887013
2	21	0	0	90	36.1581920903955	36.241610738255	6	0.20001338398084	2	4	2	NaN	1	3	0.058938015802289	0	1	NaN	436	7	58	2	120	220	320	NaN	520	1.18225682177581	1	1	NaN	1279806.2824757	NaN	1279807.2658856	1279807.78242528
2	21	0	0	90	36.1581920903955	36.241610738255	25	0.833389099920169	2	12	5	NaN	2	3	0.058938015802289	0	1	NaN	437	7	59	2	120	220	320	NaN	520	0.0104176693130285	2	1	NaN	1279809.7828255	NaN	1279810.7662093	1279811.28276733
2	21	0	0	90	36.1581920903955	36.241610738255	21	0.700046843932942	2	8	2	NaN	2	4	0.058938015802289	0	1	NaN	438	7	60	2	120	220	320	NaN	520	0.0103945217560977	2	1	NaN	1279812.1163736	NaN	1279813.0998022	1279813.61633458
2	21	0	0	90	36.1581920903955	36.241610738255	21	0.700046843932942	2	10	2	NaN	2	5	0.058938015802289	0	1	NaN	439	7	61	2	120	220	320	NaN	520	0.815493821632117	1	0	NaN	1279814.4332914	NaN	1279815.4166695	1279815.93322818
2	21	0	0	90	36.1581920903955	36.241610738255	18	0.600040151942521	2	7	6	NaN	2	5	0.058938015802289	0	1	NaN	440	7	62	2	120	220	320	NaN	520	0.25810102163814	1	0	NaN	1279817.5669228	NaN	1279818.5503268	1279819.06687618
2	21	0	0	90	36.1581920903955	36.241610738255	16	0.533369023948908	2	10	6	NaN	2	4	0.058938015802289	0	1	NaN	441	7	63	2	120	220	320	NaN	520	0.0103216846473515	2	1	NaN	1279820.1338559	NaN	1279821.1172576	1279821.63379272
2	21	0	0	90	36.1581920903955	36.241610738255	15	0.500033459952101	2	5	2	NaN	1	5	0.058938015802289	0	1	NaN	442	8	1	2	120	220	320	NaN	520	0.0264128744602203	2	0	NaN	1279874.0224465	NaN	1279875.0058632	1279875.52241663
2	21	0	0	90	36.1581920903955	36.241610738255	17	0.566704587945715	2	1	5	NaN	1	4	0.058938015802289	0	1	NaN	443	8	2	2	120	220	320	NaN	520	0.0838140216656029	2	0	NaN	1279876.3726786	NaN	1279877.3561069	1279877.87264298
2	21	0	0	90	36.1581920903955	36.241610738255	7	0.233348947977647	2	8	4	NaN	2	3	0.058938015802289	0	1	NaN	444	8	3	2	120	220	320	NaN	520	0.788178437156603	2	1	NaN	1279878.772912	NaN	1279879.7563234	1279880.27288166
2	21	0	0	90	36.1581920903955	36.241610738255	21	0.700046843932942	2	7	5	NaN	2	3	0.058938015802289	0	1	NaN	445	8	4	2	120	220	320	NaN	520	0.903835721779615	1	0	NaN	1279881.8732207	NaN	1279882.8566523	1279883.37317688
2	21	0	0	90	36.1581920903955	36.241610738255	9	0.300020075971261	2	1	4	NaN	1	3	0.058938015802289	0	1	NaN	446	8	5	2	120	220	320	NaN	520	0.310655221808702	2	0	NaN	1279885.0900798	NaN	1279886.0736022	1279886.59016438
2	21	0	0	90	36.1581920903955	36.241610738255	22	0.733382407929748	2	3	2	NaN	1	3	0.058938015802289	0	1	NaN	447	8	6	2	120	220	320	NaN	520	0.0104125691577792	1	1	NaN	1279887.707122	NaN	1279888.6905413	1279889.20708513
2	21	0	0	90	36.1581920903955	36.241610738255	18	0.600040151942521	2	1	6	NaN	1	5	0.058938015802289	0	1	NaN	448	8	7	2	120	220	320	NaN	520	0.24078657431528	2	0	NaN	1279890.0240336	NaN	1279891.0074078	1279891.52397993
2	21	0	0	90	36.1581920903955	36.241610738255	13	0.433362331958488	2	7	2	NaN	2	3	0.058938015802289	0	1	NaN	449	8	8	2	120	220	320	NaN	520	0.22673702170141	1	0	NaN	1279892.574293	NaN	1279893.5576968	1279894.07422988
2	21	0	0	90	36.1581920903955	36.241610738255	14	0.466697895955294	2	7	5	NaN	2	3	0.058938015802289	0	1	NaN	450	8	9	2	120	220	320	NaN	520	0.0103030372411013	2	1	NaN	1279895.1078529	NaN	1279896.0912421	1279896.60781816
2	21	0	0	90	36.1581920903955	36.241610738255	20	0.666711279936135	2	5	3	NaN	1	3	0.058938015802289	0	1	NaN	451	8	10	2	120	220	320	NaN	520	0.136034121736884	1	1	NaN	1279897.4247472	NaN	1279898.4081468	1279898.92470168
2	21	0	0	90	36.1581920903955	36.241610738255	16	0.533369023948908	2	2	6	NaN	1	3	0.058938015802289	0	1	NaN	452	8	11	2	120	220	320	NaN	520	0.10921197431162	1	1	NaN	1279899.8916483	NaN	1279900.875054	1279901.39162053
2	21	0	0	90	36.1581920903955	36.241610738255	16	0.533369023948908	2	6	6	NaN	1	3	0.058938015802289	0	1	NaN	453	8	12	2	120	220	320	NaN	520	0.788525021634996	1	1	NaN	1279902.3085444	NaN	1279903.2919601	1279903.80851508
2	21	0	0	90	36.1581920903955	36.241610738255	24	0.800053535923362	2	11	4	NaN	2	4	0.058938015802289	0	1	NaN	454	8	13	2	120	220	320	NaN	520	0.327821574173868	2	1	NaN	1279905.4087601	NaN	1279906.3922638	1279906.90882653
2	21	0	0	90	36.1581920903955	36.241610738255	15	0.500033459952101	2	11	5	NaN	2	3	0.058938015802289	0	1	NaN	455	8	14	2	120	220	320	NaN	520	0.190388921648264	2	1	NaN	1279908.0424567	NaN	1279909.0258849	1279909.54241348
2	21	0	0	90	36.1581920903955	36.241610738255	25	0.833389099920169	2	11	2	NaN	2	3	0.058938015802289	0	1	NaN	456	8	15	2	120	220	320	NaN	520	0.0103732743300498	2	1	NaN	1279910.5427042	NaN	1279911.5261163	1279912.04266403
2	21	0	0	90	36.1581920903955	36.241610738255	0	0	1	7	6	NaN	2	5	0.058938015802289	0	1	NaN	457	8	16	2	110	210	310	NaN	510	0.0103969217743725	1	0	NaN	1279912.8594927	NaN	1279913.8430057	1279914.35955098
2	21	0	0	90	36.1581920903955	36.241610738255	7	0.233348947977647	2	1	5	NaN	1	4	0.058938015802289	0	1	NaN	458	8	17	2	120	220	320	NaN	520	0.296776874223724	2	0	NaN	1279915.1764926	NaN	1279916.1598903	1279916.67645103
2	21	0	0	90	36.1581920903955	36.241610738255	25	0.833389099920169	2	12	3	NaN	2	4	0.058938015802289	0	1	NaN	459	8	18	2	120	220	320	NaN	520	0.145050369203091	2	1	NaN	1279918.1602075	NaN	1279919.1434419	1279919.66007543
2	21	0	0	90	36.1581920903955	36.241610738255	22	0.733382407929748	2	10	5	NaN	2	3	0.058938015802289	0	1	NaN	460	8	19	2	120	220	320	NaN	520	0.371070469263941	2	1	NaN	1279921.0937178	NaN	1279922.077126	1279922.59369303
2	21	0	0	90	36.1581920903955	36.241610738255	16	0.533369023948908	2	11	3	NaN	2	5	0.058938015802289	0	1	NaN	461	8	20	2	120	220	320	NaN	520	0.103757121600211	2	1	NaN	1279923.7772205	NaN	1279924.7607384	1279925.27729148
