subjno	age	gender	isPractice	viewdist	CmToPixX	CmToPixY	SOA_frm	SOA_time	targNum	targID	targExample	targRace	targGender	firstTargPos	contrast	familiarity	curr_staircase	iStair	TrialNum	BlockNum	blktrl	sessionNum	TC_FIXATION	TC_RSVP_START	TC_RSVP_END	TC_BLANK	TC_RESPONSE_ONSET	RT2afc	resp_2afc	acc	RSVPOnsetVBL	RSVPOnsetTime	RSVPOffsetVBL	RSVPOffsetTime	startrt_2afc
49	20	0	0	90	36.1581920903955	36.241610738255	11	0.366701411940157	2	10	4	NaN	2	5	0.0455522286888362	0	1	NaN	1	1	1	1	120	220	320	NaN	520	0.607559130527079	2	1	NaN	3182990.2345035	NaN	3182991.2178171	3182991.75090467
49	20	0	0	90	36.1581920903955	36.241610738255	8	0.266691935956478	2	3	1	NaN	1	5	0.0455522286888362	0	1	NaN	2	1	2	1	120	220	320	NaN	520	0.587206278461963	2	0	NaN	3182993.7348371	NaN	3182994.7181061	3182995.25124372
49	20	0	0	90	36.1581920903955	36.241610738255	19	0.633393347896635	2	8	5	NaN	2	4	0.0455522286888362	0	1	NaN	3	1	3	1	120	220	320	NaN	520	1.35837187431753	2	1	NaN	3182996.6682398	NaN	3182997.6516445	3182998.16819673
49	20	0	0	90	36.1581920903955	36.241610738255	11	0.366701411940157	2	4	5	NaN	1	3	0.0455522286888362	0	1	NaN	4	1	4	1	120	220	320	NaN	520	2.13079802179709	2	0	NaN	3183000.3518784	NaN	3183001.3353553	3183001.85189788
49	20	0	0	90	36.1581920903955	36.241610738255	13	0.433374395929277	2	6	5	NaN	1	4	0.0455522286888362	0	1	NaN	5	1	5	1	120	220	320	NaN	520	0.0104167740792036	1	1	NaN	3183004.8022459	NaN	3183005.7857843	3183006.30233093
49	20	0	0	90	36.1581920903955	36.241610738255	18	0.600056855902076	2	4	4	NaN	1	3	0.0455522286888362	0	1	NaN	6	1	6	1	120	220	320	NaN	520	0.490160474088043	1	1	NaN	3183007.1359521	NaN	3183008.1193265	3183008.63589033
49	20	0	0	90	36.1581920903955	36.241610738255	14	0.466710887923837	2	7	6	NaN	2	5	0.0455522286888362	0	1	NaN	7	1	7	1	120	220	320	NaN	520	0.665698674041778	1	0	NaN	3183009.952894	NaN	3183010.9362901	3183011.45283913
49	20	0	0	90	36.1581920903955	36.241610738255	9	0.300028427951038	2	5	6	NaN	1	4	0.0455522286888362	0	1	NaN	8	1	8	1	120	220	320	NaN	520	0.0578969744965434	1	1	NaN	3183012.9366273	NaN	3183013.9199093	3183014.43646163
49	20	0	0	90	36.1581920903955	36.241610738255	7	0.233355443961918	2	12	5	NaN	2	3	0.0455522286888362	0	1	NaN	9	1	9	1	120	220	320	NaN	520	0.530957722105086	2	1	NaN	3183015.3032902	NaN	3183016.2868091	3183016.80335608
49	20	0	0	90	36.1581920903955	36.241610738255	21	0.700066331885755	2	2	2	NaN	1	3	0.0455522286888362	0	1	NaN	10	1	10	1	120	220	320	NaN	520	0.104777474422008	1	1	NaN	3183018.1536888	NaN	3183019.1370727	3183019.65363963
49	20	0	0	90	36.1581920903955	36.241610738255	12	0.400037903934717	2	3	4	NaN	1	5	0.0455522286888362	0	1	NaN	11	1	11	1	120	220	320	NaN	520	0.703033421654254	2	0	NaN	3183020.5872794	NaN	3183021.5706534	3183022.08720758
49	20	0	0	90	36.1581920903955	36.241610738255	20	0.666729839891195	2	1	2	NaN	1	3	0.0455522286888362	0	1	NaN	12	1	12	1	120	220	320	NaN	520	1.62203643936664	2	0	NaN	3183023.6041123	NaN	3183024.5876258	3183025.10418886
49	20	0	0	90	36.1581920903955	36.241610738255	24	0.800075807869434	2	10	1	NaN	2	5	0.0455522286888362	0	1	NaN	13	1	13	1	120	220	320	NaN	520	0.0104092741385102	2	1	NaN	3183027.554619	NaN	3183028.5380172	3183029.05457063
49	20	0	0	90	36.1581920903955	36.241610738255	21	0.700066331885755	2	5	4	NaN	1	4	0.0455522286888362	0	1	NaN	14	1	14	1	120	220	320	NaN	520	0.0104215741157532	1	1	NaN	3183029.8881972	NaN	3183030.8715749	3183031.38812363
49	20	0	0	90	36.1581920903955	36.241610738255	21	0.700066331885755	2	6	1	NaN	1	5	0.0455522286888362	0	1	NaN	15	1	15	1	120	220	320	NaN	520	0.0104051739908755	1	1	NaN	3183032.2217589	NaN	3183033.2051441	3183033.72169193
49	20	0	0	90	36.1581920903955	36.241610738255	10	0.333364919945598	2	1	3	NaN	1	3	0.0455522286888362	0	1	NaN	16	1	16	1	120	220	320	NaN	520	0.0150654744356871	1	1	NaN	3183034.5553086	NaN	3183035.5387161	3183036.05525153
49	20	0	0	90	36.1581920903955	36.241610738255	22	0.733402823880315	2	7	4	NaN	2	5	0.0455522286888362	0	1	NaN	17	1	17	1	120	220	320	NaN	520	0.795346626080573	2	1	NaN	3183037.2387758	NaN	3183038.2222919	3183038.73885427
49	20	0	0	90	36.1581920903955	36.241610738255	20	0.666729839891195	2	3	2	NaN	1	5	0.0455522286888362	0	1	NaN	18	1	18	1	120	220	320	NaN	520	0.0104393218643963	1	1	NaN	3183040.3558626	NaN	3183041.3392774	3183041.85582348
49	20	0	0	90	36.1581920903955	36.241610738255	0	0	1	7	5	NaN	2	4	0.0455522286888362	0	1	NaN	19	1	19	1	110	210	310	NaN	510	0.123584174085408	2	1	NaN	3183042.8226493	NaN	3183043.8061665	3183044.32273983
49	20	0	0	90	36.1581920903955	36.241610738255	12	0.400037903934717	2	3	1	NaN	1	3	0.0455522286888362	0	1	NaN	20	1	20	1	120	220	320	NaN	520	0.209364473819733	2	0	NaN	3183045.2730247	NaN	3183046.2564455	3183046.77297573
49	20	0	0	90	36.1581920903955	36.241610738255	14	0.466710887923837	2	7	1	NaN	2	3	0.0455522286888362	0	1	NaN	21	1	21	1	120	220	320	NaN	520	0.331810174044222	2	1	NaN	3183047.8066107	NaN	3183048.7900092	3183049.30655873
49	20	0	0	90	36.1581920903955	36.241610738255	10	0.333364919945598	2	7	3	NaN	2	5	0.0455522286888362	0	1	NaN	22	1	22	1	120	220	320	NaN	520	1.03338212659582	2	1	NaN	3183050.4568573	NaN	3183051.440268	3183051.95682557
49	20	0	0	90	36.1581920903955	36.241610738255	10	0.333364919945598	2	6	2	NaN	1	3	0.0455522286888362	0	1	NaN	23	1	23	1	120	220	320	NaN	520	0.0104423700831831	1	1	NaN	3183053.8070692	NaN	3183054.7905931	3183055.30713903
49	20	0	0	90	36.1581920903955	36.241610738255	8	0.266691935956478	2	10	1	NaN	2	3	0.0455522286888362	0	1	NaN	24	1	24	1	120	220	320	NaN	520	0.68655167426914	1	0	NaN	3183056.1241959	NaN	3183057.1074887	3183057.62403893
49	20	0	0	90	36.1581920903955	36.241610738255	19	0.633393347896635	2	3	6	NaN	1	3	0.0455522286888362	0	1	NaN	25	1	25	1	120	220	320	NaN	520	0.789208174217492	2	0	NaN	3183059.141056	NaN	3183060.1244518	3183060.64101193
49	20	0	0	90	36.1581920903955	36.241610738255	24	0.800075807869434	2	4	2	NaN	1	3	0.0455522286888362	0	1	NaN	26	1	26	1	120	220	320	NaN	520	0.993119974154979	1	1	NaN	3183062.2413743	NaN	3183063.2247599	3183063.74130733
49	20	0	0	90	36.1581920903955	36.241610738255	9	0.300028427951038	2	10	4	NaN	2	4	0.0455522286888362	0	1	NaN	27	1	27	1	120	220	320	NaN	520	0.0104118739254773	2	1	NaN	3183065.5583145	NaN	3183066.5417542	3183067.05830423
49	20	0	0	90	36.1581920903955	36.241610738255	21	0.700066331885755	2	12	3	NaN	2	5	0.0455522286888362	0	1	NaN	28	1	28	1	120	220	320	NaN	520	1.11878897389397	2	1	NaN	3183067.8919163	NaN	3183068.8753175	3183069.39186363
49	20	0	0	90	36.1581920903955	36.241610738255	16	0.533383871912956	2	3	1	NaN	1	3	0.0455522286888362	0	1	NaN	29	1	29	1	120	220	320	NaN	520	0.0368333742953837	2	0	NaN	3183071.3255661	NaN	3183072.3089814	3183072.82554093
49	20	0	0	90	36.1581920903955	36.241610738255	0	0	1	5	1	NaN	1	4	0.0455522286888362	0	1	NaN	30	1	30	1	110	210	310	NaN	510	0.0866979737766087	2	0	NaN	3183073.6758264	NaN	3183074.6591994	3183075.17576473
49	20	0	0	90	36.1581920903955	36.241610738255	10	0.333364919945598	2	5	4	NaN	1	4	0.0455522286888362	0	1	NaN	31	1	31	1	120	220	320	NaN	520	0.0104224742390215	1	1	NaN	3183076.0760441	NaN	3183077.0594266	3183077.57600583
49	20	0	0	90	36.1581920903955	36.241610738255	24	0.800075807869434	2	5	6	NaN	1	5	0.0455522286888362	0	1	NaN	32	1	32	1	120	220	320	NaN	520	0.0102705433964729	1	1	NaN	3183078.4762654	NaN	3183079.459667	3183079.97625066
49	20	0	0	90	36.1581920903955	36.241610738255	12	0.400037903934717	2	6	1	NaN	1	4	0.0455522286888362	0	1	NaN	33	1	33	1	120	220	320	NaN	520	0.0104114739224315	1	1	NaN	3183080.8097138	NaN	3183081.7932648	3183082.30979833
49	20	0	0	90	36.1581920903955	36.241610738255	9	0.300028427951038	2	10	1	NaN	2	5	0.0455522286888362	0	1	NaN	34	1	34	1	120	220	320	NaN	520	0.0104071740061045	1	0	NaN	3183083.1433701	NaN	3183084.1268061	3183084.64336973
49	20	0	0	90	36.1581920903955	36.241610738255	23	0.766739315874875	2	9	2	NaN	2	4	0.0455522286888362	0	1	NaN	35	1	35	1	120	220	320	NaN	520	0.157379678450525	2	1	NaN	3183085.476995	NaN	3183086.4603662	3183086.97693492
49	20	0	0	90	36.1581920903955	36.241610738255	20	0.666729839891195	2	5	1	NaN	1	4	0.0455522286888362	0	1	NaN	36	1	36	1	120	220	320	NaN	520	0.569749774411321	2	0	NaN	3183088.3605922	NaN	3183089.3439968	3183089.86054433
49	20	0	0	90	36.1581920903955	36.241610738255	8	0.266691935956478	2	6	1	NaN	1	3	0.0455522286888362	0	1	NaN	37	1	37	1	120	220	320	NaN	520	0.010417674202472	1	1	NaN	3183091.2440634	NaN	3183092.2276096	3183092.74415833
49	20	0	0	90	36.1581920903955	36.241610738255	9	0.300028427951038	2	9	6	NaN	2	5	0.0455522286888362	0	1	NaN	38	1	38	1	120	220	320	NaN	520	0.769685874227434	2	1	NaN	3183093.5610868	NaN	3183094.5445401	3183095.06105453
49	20	0	0	90	36.1581920903955	36.241610738255	20	0.666729839891195	2	4	3	NaN	1	5	0.0455522286888362	0	1	NaN	39	1	39	1	120	220	320	NaN	520	0.0104212216101587	1	1	NaN	3183096.6447388	NaN	3183097.6281267	3183098.14470238
49	20	0	0	90	36.1581920903955	36.241610738255	23	0.766739315874875	2	2	5	NaN	1	5	0.0455522286888362	0	1	NaN	40	1	40	1	120	220	320	NaN	520	0.28809882607311	1	1	NaN	3183098.9781944	NaN	3183099.9617121	3183100.47825607
49	20	0	0	90	36.1581920903955	36.241610738255	6	0.200018951967359	2	10	4	NaN	2	5	0.0455522286888362	0	1	NaN	41	1	41	1	120	220	320	NaN	520	2.04794329591095	2	1	NaN	3183101.5785731	NaN	3183102.5619434	3183103.0785121
49	20	0	0	90	36.1581920903955	36.241610738255	13	0.433374395929277	2	12	4	NaN	2	5	0.0455522286888362	0	1	NaN	42	1	42	1	120	220	320	NaN	520	0.647779474500567	2	1	NaN	3183106.3789025	NaN	3183107.3624239	3183107.87898003
49	20	0	0	90	36.1581920903955	36.241610738255	23	0.766739315874875	2	11	6	NaN	2	3	0.0455522286888362	0	1	NaN	43	1	43	1	120	220	320	NaN	520	0.128487722016871	2	1	NaN	3183109.3459892	NaN	3183110.3293867	3183110.84593488
49	20	0	0	90	36.1581920903955	36.241610738255	19	0.633393347896635	2	6	4	NaN	1	5	0.0455522286888362	0	1	NaN	44	1	44	1	120	220	320	NaN	520	1.10273157432675	1	1	NaN	3183111.7795771	NaN	3183112.7629671	3183113.27950953
49	20	0	0	90	36.1581920903955	36.241610738255	15	0.500047379918396	2	1	3	NaN	1	5	0.0455522286888362	0	1	NaN	45	1	45	1	120	220	320	NaN	520	0.0104185743257403	1	1	NaN	3183115.7299209	NaN	3183116.7133452	3183117.22989763
49	20	0	0	90	36.1581920903955	36.241610738255	21	0.700066331885755	2	6	3	NaN	1	4	0.0455522286888362	0	1	NaN	46	1	46	1	120	220	320	NaN	520	0.123572274111211	1	1	NaN	3183118.0468516	NaN	3183119.0302364	3183119.54679503
49	20	0	0	90	36.1581920903955	36.241610738255	19	0.633393347896635	2	2	2	NaN	1	3	0.0455522286888362	0	1	NaN	47	1	47	1	120	220	320	NaN	520	0.0102728437632322	1	1	NaN	3183120.4804391	NaN	3183121.4638076	3183121.98036856
49	20	0	0	90	36.1581920903955	36.241610738255	12	0.400037903934717	2	5	6	NaN	1	4	0.0455522286888362	0	1	NaN	48	1	48	1	120	220	320	NaN	520	1.67665967391804	1	1	NaN	3183122.8139896	NaN	3183123.7973786	3183124.31393023
49	20	0	0	90	36.1581920903955	36.241610738255	7	0.233355443961918	2	6	3	NaN	1	4	0.0455522286888362	0	1	NaN	49	1	49	1	120	220	320	NaN	520	0.01042122207582	1	1	NaN	3183126.7977291	NaN	3183127.7810996	3183128.29764968
49	20	0	0	90	36.1581920903955	36.241610738255	16	0.533383871912956	2	10	3	NaN	2	4	0.0455522286888362	0	1	NaN	50	1	50	1	120	220	320	NaN	520	0.0638403738848865	1	0	NaN	3183129.1144763	NaN	3183130.0979916	3183130.61454953
49	20	0	0	90	36.1581920903955	36.241610738255	6	0.200018951967359	2	10	1	NaN	2	3	0.0455522286888362	0	1	NaN	51	1	51	1	120	220	320	NaN	520	0.633332822006196	2	1	NaN	3183131.4813643	NaN	3183132.464893	3183132.98144438
49	20	0	0	90	36.1581920903955	36.241610738255	15	0.500047379918396	2	12	2	NaN	2	5	0.0455522286888362	0	1	NaN	52	1	52	1	120	220	320	NaN	520	0.0104533741250634	2	1	NaN	3183134.4317912	NaN	3183135.4151814	3183135.93174473
49	20	0	0	90	36.1581920903955	36.241610738255	20	0.666729839891195	2	11	4	NaN	2	3	0.0455522286888362	0	1	NaN	53	1	53	1	120	220	320	NaN	520	0.0857859221287072	2	1	NaN	3183136.748685	NaN	3183137.7320843	3183138.24864038
49	20	0	0	90	36.1581920903955	36.241610738255	16	0.533383871912956	2	2	3	NaN	1	3	0.0455522286888362	0	1	NaN	54	1	54	1	120	220	320	NaN	520	0.0102760437875986	2	0	NaN	3183139.1489028	NaN	3183140.1323236	3183140.64887476
49	20	0	0	90	36.1581920903955	36.241610738255	7	0.233355443961918	2	11	4	NaN	2	5	0.0455522286888362	0	1	NaN	55	1	55	1	120	220	320	NaN	520	1.10430052177981	2	1	NaN	3183141.4824726	NaN	3183142.4658667	3183142.98242778
49	20	0	0	90	36.1581920903955	36.241610738255	20	0.666729839891195	2	12	4	NaN	2	3	0.0455522286888362	0	1	NaN	56	1	56	1	120	220	320	NaN	520	0.0104496744461358	2	1	NaN	3183144.8994909	NaN	3183145.8828956	3183146.39943143
49	20	0	0	90	36.1581920903955	36.241610738255	25	0.833412299863994	2	10	4	NaN	2	3	0.0455522286888362	0	1	NaN	57	1	57	1	120	220	320	NaN	520	0.0104539701715112	2	1	NaN	3183147.3829307	NaN	3183148.366482	3183148.88302023
49	20	0	0	90	36.1581920903955	36.241610738255	22	0.733402823880315	2	8	6	NaN	2	4	0.0455522286888362	0	1	NaN	58	1	58	1	120	220	320	NaN	520	0.127020821906626	2	1	NaN	3183149.6999733	NaN	3183150.6833548	3183151.19991068
49	20	0	0	90	36.1581920903955	36.241610738255	19	0.633393347896635	2	12	1	NaN	2	5	0.0455522286888362	0	1	NaN	59	1	59	1	120	220	320	NaN	520	6.43704067403451	2	1	NaN	3183152.1333838	NaN	3183153.116933	3183153.63348153
49	20	0	0	90	36.1581920903955	36.241610738255	25	0.833412299863994	2	4	5	NaN	1	4	0.0455522286888362	0	1	NaN	60	1	60	1	120	220	320	NaN	520	0.0540552260354161	1	1	NaN	3183160.8843929	NaN	3183161.8677827	3183162.38434677
49	20	0	0	90	36.1581920903955	36.241610738255	22	0.733402823880315	2	12	1	NaN	2	3	0.0455522286888362	0	1	NaN	61	1	61	1	120	220	320	NaN	520	1.10050052171573	2	1	NaN	3183163.7179178	NaN	3183164.7013983	3183165.21795278
49	20	0	0	90	36.1581920903955	36.241610738255	17	0.566720363907516	2	9	6	NaN	2	4	0.0455522286888362	0	1	NaN	62	1	62	1	120	220	320	NaN	520	1.79587392183021	1	0	NaN	3183167.1350365	NaN	3183168.1183963	3183168.63494698
49	20	0	0	90	36.1581920903955	36.241610738255	7	0.233355443961918	2	7	4	NaN	2	3	0.0455522286888362	0	1	NaN	63	1	63	1	120	220	320	NaN	520	0.431144325993955	1	0	NaN	3183171.2354324	NaN	3183172.2187979	3183172.73535137
49	20	0	0	90	36.1581920903955	36.241610738255	23	0.766739315874875	2	10	2	NaN	2	3	0.0455522286888362	0	1	NaN	64	2	1	1	120	220	320	NaN	520	0.400227878242731	1	0	NaN	3183190.7706481	NaN	3183191.7540635	3183192.27061502
49	20	0	0	90	36.1581920903955	36.241610738255	18	0.600056855902076	2	7	3	NaN	2	3	0.0455522286888362	0	1	NaN	65	2	2	1	120	220	320	NaN	520	0.722959274426103	1	0	NaN	3183193.4874905	NaN	3183194.4709864	3183194.98753883
49	20	0	0	90	36.1581920903955	36.241610738255	24	0.800075807869434	2	6	6	NaN	1	4	0.0455522286888362	0	1	NaN	66	2	3	1	120	220	320	NaN	520	0.0103061394765973	1	1	NaN	3183196.5210867	NaN	3183197.5047165	3183198.02117886
49	20	0	0	90	36.1581920903955	36.241610738255	24	0.800075807869434	2	2	2	NaN	1	3	0.0455522286888362	0	1	NaN	67	2	4	1	120	220	320	NaN	520	0.0104062743484974	1	1	NaN	3183198.8380006	NaN	3183199.8215146	3183200.33806843
49	20	0	0	90	36.1581920903955	36.241610738255	14	0.466710887923837	2	5	1	NaN	1	3	0.0455522286888362	0	1	NaN	68	2	5	1	120	220	320	NaN	520	0.0395683743990958	2	0	NaN	3183201.1550372	NaN	3183202.1384127	3183202.65496963
49	20	0	0	90	36.1581920903955	36.241610738255	18	0.600056855902076	2	11	3	NaN	2	4	0.0455522286888362	0	1	NaN	69	2	6	1	120	220	320	NaN	520	0.129681874066591	2	1	NaN	3183203.5052508	NaN	3183204.488645	3183205.00519473
49	20	0	0	90	36.1581920903955	36.241610738255	7	0.233355443961918	2	3	2	NaN	1	5	0.0455522286888362	0	1	NaN	70	2	7	1	120	220	320	NaN	520	0.0103275873698294	1	1	NaN	3183205.9554988	NaN	3183206.9388954	3183207.45543601
49	20	0	0	90	36.1581920903955	36.241610738255	11	0.366701411940157	2	2	6	NaN	1	3	0.0455522286888362	0	1	NaN	71	2	8	1	120	220	320	NaN	520	0.0104121742770076	1	1	NaN	3183208.7891024	NaN	3183209.7724959	3183210.28904633
49	20	0	0	90	36.1581920903955	36.241610738255	13	0.433374395929277	2	2	4	NaN	1	5	0.0455522286888362	0	1	NaN	72	2	9	1	120	220	320	NaN	520	0.783967374358326	2	0	NaN	3183211.1226237	NaN	3183212.1060581	3183212.62261583
49	20	0	0	90	36.1581920903955	36.241610738255	15	0.500047379918396	2	2	4	NaN	1	3	0.0455522286888362	0	1	NaN	73	2	10	1	120	220	320	NaN	520	0.0104031260125339	1	1	NaN	3183214.2229881	NaN	3183215.2063687	3183215.72291547
49	20	0	0	90	36.1581920903955	36.241610738255	25	0.833412299863994	2	5	2	NaN	1	5	0.0455522286888362	0	1	NaN	74	2	11	1	120	220	320	NaN	520	0.0104089742526412	1	1	NaN	3183216.5397471	NaN	3183217.5232552	3183218.03981273
49	20	0	0	90	36.1581920903955	36.241610738255	23	0.766739315874875	2	11	4	NaN	2	4	0.0455522286888362	0	1	NaN	75	2	12	1	120	220	320	NaN	520	1.34045894769952	2	1	NaN	3183219.1902163	NaN	3183220.1734993	3183220.69008205
49	20	0	0	90	36.1581920903955	36.241610738255	16	0.533383871912956	2	9	6	NaN	2	3	0.0455522286888362	0	1	NaN	76	2	13	1	120	220	320	NaN	520	0.0103947264142334	2	1	NaN	3183222.8405531	NaN	3183223.8238735	3183224.34043547
49	20	0	0	90	36.1581920903955	36.241610738255	22	0.733402823880315	2	10	5	NaN	2	5	0.0455522286888362	0	1	NaN	77	2	14	1	120	220	320	NaN	520	0.149545021820813	1	0	NaN	3183225.1573784	NaN	3183226.140773	3183226.65731708
49	20	0	0	90	36.1581920903955	36.241610738255	15	0.500047379918396	2	11	1	NaN	2	4	0.0455522286888362	0	1	NaN	78	2	15	1	120	220	320	NaN	520	0.23434117436409	2	1	NaN	3183227.6241491	NaN	3183228.6076854	3183229.12423083
49	20	0	0	90	36.1581920903955	36.241610738255	15	0.500047379918396	2	5	4	NaN	1	5	0.0455522286888362	0	1	NaN	79	2	16	1	120	220	320	NaN	520	0.676068174187094	2	0	NaN	3183230.174539	NaN	3183231.1579116	3183231.67448203
49	20	0	0	90	36.1581920903955	36.241610738255	10	0.333364919945598	2	1	2	NaN	1	4	0.0455522286888362	0	1	NaN	80	2	17	1	120	220	320	NaN	520	0.5478121265769	1	1	NaN	3183233.1748301	NaN	3183234.1584091	3183234.67478007
49	20	0	0	90	36.1581920903955	36.241610738255	11	0.366701411940157	2	11	3	NaN	2	5	0.0455522286888362	0	1	NaN	81	2	18	1	120	220	320	NaN	520	1.84908327413723	1	0	NaN	3183236.0417877	NaN	3183237.0251893	3183237.54172383
49	20	0	0	90	36.1581920903955	36.241610738255	23	0.766739315874875	2	5	3	NaN	1	3	0.0455522286888362	0	1	NaN	82	2	19	1	120	220	320	NaN	520	0.313869026489556	2	0	NaN	3183240.2088777	NaN	3183241.1922546	3183241.70880627
49	20	0	0	90	36.1581920903955	36.241610738255	0	0	1	9	5	NaN	2	4	0.0455522286888362	0	1	NaN	83	2	20	1	110	210	310	NaN	510	0.0103946262970567	2	1	NaN	3183242.8424465	NaN	3183243.8258483	3183244.34240347
49	20	0	0	90	36.1581920903955	36.241610738255	11	0.366701411940157	2	9	1	NaN	2	3	0.0455522286888362	0	1	NaN	84	2	21	1	120	220	320	NaN	520	0.010395125951618	2	1	NaN	3183245.1593275	NaN	3183246.1426333	3183246.65929557
49	20	0	0	90	36.1581920903955	36.241610738255	25	0.833412299863994	2	12	1	NaN	2	5	0.0455522286888362	0	1	NaN	85	2	22	1	120	220	320	NaN	520	3.04686247417703	2	1	NaN	3183247.476223	NaN	3183248.4596349	3183248.97618083
49	20	0	0	90	36.1581920903955	36.241610738255	23	0.766739315874875	2	9	6	NaN	2	4	0.0455522286888362	0	1	NaN	86	2	23	1	120	220	320	NaN	520	0.0104471701197326	2	1	NaN	3183252.8268482	NaN	3183253.8101628	3183254.32670783
49	20	0	0	90	36.1581920903955	36.241610738255	20	0.666729839891195	2	1	4	NaN	1	3	0.0455522286888362	0	1	NaN	87	2	24	1	120	220	320	NaN	520	0.490395621862262	2	0	NaN	3183255.1603282	NaN	3183256.1437212	3183256.66026728
49	20	0	0	90	36.1581920903955	36.241610738255	24	0.800075807869434	2	11	1	NaN	2	3	0.0455522286888362	0	1	NaN	88	2	25	1	120	220	320	NaN	520	0.186132926493883	2	1	NaN	3183257.9606	NaN	3183258.9439997	3183259.46054337
49	20	0	0	90	36.1581920903955	36.241610738255	12	0.400037903934717	2	11	3	NaN	2	5	0.0455522286888362	0	1	NaN	89	2	26	1	120	220	320	NaN	520	0.0104066263884306	2	1	NaN	3183260.4607058	NaN	3183261.4442449	3183261.96079867
49	20	0	0	90	36.1581920903955	36.241610738255	15	0.500047379918396	2	9	1	NaN	2	5	0.0455522286888362	0	1	NaN	90	2	27	1	120	220	320	NaN	520	0.0104117742739618	2	1	NaN	3183262.794395	NaN	3183263.7778107	3183264.29436113
49	20	0	0	90	36.1581920903955	36.241610738255	6	0.200018951967359	2	12	4	NaN	2	4	0.0455522286888362	0	1	NaN	91	2	28	1	120	220	320	NaN	520	0.211413274053484	2	1	NaN	3183265.1111818	NaN	3183266.0946887	3183266.61124553
49	20	0	0	90	36.1581920903955	36.241610738255	10	0.333364919945598	2	7	2	NaN	2	3	0.0455522286888362	0	1	NaN	92	2	29	1	120	220	320	NaN	520	0.590967974159867	2	1	NaN	3183267.6282282	NaN	3183268.6116115	3183269.12816563
49	20	0	0	90	36.1581920903955	36.241610738255	6	0.200018951967359	2	7	4	NaN	2	4	0.0455522286888362	0	1	NaN	93	2	30	1	120	220	320	NaN	520	1.25852897437289	1	0	NaN	3183270.5285111	NaN	3183271.5118965	3183272.02845193
49	20	0	0	90	36.1581920903955	36.241610738255	25	0.833412299863994	2	1	6	NaN	1	4	0.0455522286888362	0	1	NaN	94	2	31	1	120	220	320	NaN	520	0.531245974358171	2	0	NaN	3183274.0955163	NaN	3183275.0789091	3183275.59546453
49	20	0	0	90	36.1581920903955	36.241610738255	8	0.266691935956478	2	9	5	NaN	2	4	0.0455522286888362	0	1	NaN	95	2	32	1	120	220	320	NaN	520	0.0104212742298841	2	1	NaN	3183276.9457994	NaN	3183277.9291893	3183278.44574423
49	20	0	0	90	36.1581920903955	36.241610738255	20	0.666729839891195	2	2	5	NaN	1	3	0.0455522286888362	0	1	NaN	96	2	33	1	120	220	320	NaN	520	0.0104120741598308	1	1	NaN	3183279.2625603	NaN	3183280.2460933	3183280.76264193
49	20	0	0	90	36.1581920903955	36.241610738255	24	0.800075807869434	2	12	1	NaN	2	4	0.0455522286888362	0	1	NaN	97	2	34	1	120	220	320	NaN	520	0.0104115745052695	1	0	NaN	3183281.5962392	NaN	3183282.5796377	3183283.09621043
49	20	0	0	90	36.1581920903955	36.241610738255	14	0.466710887923837	2	3	5	NaN	1	4	0.0455522286888362	0	1	NaN	98	2	35	1	120	220	320	NaN	520	0.0104552702978253	1	1	NaN	3183283.913015	NaN	3183284.8965472	3183285.41310043
49	20	0	0	90	36.1581920903955	36.241610738255	22	0.733402823880315	2	2	1	NaN	1	5	0.0455522286888362	0	1	NaN	99	2	36	1	120	220	320	NaN	520	0.532646674197167	2	0	NaN	3183286.230048	NaN	3183287.2134776	3183287.72999063
49	20	0	0	90	36.1581920903955	36.241610738255	11	0.366701411940157	2	5	2	NaN	1	5	0.0455522286888362	0	1	NaN	100	2	37	1	120	220	320	NaN	520	0.730541074182838	1	1	NaN	3183289.0803254	NaN	3183290.0637041	3183290.58027413
49	20	0	0	90	36.1581920903955	36.241610738255	13	0.433374395929277	2	11	6	NaN	2	3	0.0455522286888362	0	1	NaN	101	2	38	1	120	220	320	NaN	520	1.05002907430753	2	1	NaN	3183292.480637	NaN	3183293.4640555	3183293.98060503
49	20	0	0	90	36.1581920903955	36.241610738255	11	0.366701411940157	2	1	1	NaN	1	4	0.0455522286888362	0	1	NaN	102	2	39	1	120	220	320	NaN	520	0.0104088741354644	1	1	NaN	3183295.8476643	NaN	3183296.8310549	3183297.34760863
49	20	0	0	90	36.1581920903955	36.241610738255	17	0.566720363907516	2	3	3	NaN	1	5	0.0455522286888362	0	1	NaN	103	2	40	1	120	220	320	NaN	520	0.010391226503998	1	1	NaN	3183298.1645536	NaN	3183299.1479562	3183299.66449417
49	20	0	0	90	36.1581920903955	36.241610738255	10	0.333364919945598	2	12	3	NaN	2	5	0.0455522286888362	0	1	NaN	104	2	41	1	120	220	320	NaN	520	0.0103738307952881	2	1	NaN	3183300.881353	NaN	3183301.8648723	3183302.38142837
49	20	0	0	90	36.1581920903955	36.241610738255	16	0.533383871912956	2	7	4	NaN	2	4	0.0455522286888362	0	1	NaN	105	2	42	1	120	220	320	NaN	520	0.212675222195685	2	1	NaN	3183303.1984451	NaN	3183304.1817702	3183304.69832268
49	20	0	0	90	36.1581920903955	36.241610738255	20	0.666729839891195	2	8	1	NaN	2	4	0.0455522286888362	0	1	NaN	106	2	43	1	120	220	320	NaN	520	0.0104131745174527	2	1	NaN	3183305.7152916	NaN	3183306.6986904	3183307.21523743
49	20	0	0	90	36.1581920903955	36.241610738255	19	0.633393347896635	2	9	6	NaN	2	4	0.0455522286888362	0	1	NaN	107	2	44	1	120	220	320	NaN	520	0.0104132741689682	2	1	NaN	3183308.0488576	NaN	3183309.0322761	3183309.54879943
49	20	0	0	90	36.1581920903955	36.241610738255	18	0.600056855902076	2	7	3	NaN	2	4	0.0455522286888362	0	1	NaN	108	2	45	1	120	220	320	NaN	520	1.40530597418547	2	1	NaN	3183310.3657683	NaN	3183311.3491223	3183311.86570053
49	20	0	0	90	36.1581920903955	36.241610738255	22	0.733402823880315	2	3	4	NaN	1	5	0.0455522286888362	0	1	NaN	109	2	46	1	120	220	320	NaN	520	1.52830077428371	2	0	NaN	3183314.0826562	NaN	3183315.0661968	3183315.58273133
49	20	0	0	90	36.1581920903955	36.241610738255	21	0.700066331885755	2	8	6	NaN	2	5	0.0455522286888362	0	1	NaN	110	2	47	1	120	220	320	NaN	520	0.0104219219647348	1	0	NaN	3183318.2830681	NaN	3183319.2665797	3183319.78314498
49	20	0	0	90	36.1581920903955	36.241610738255	18	0.600056855902076	2	6	4	NaN	1	4	0.0455522286888362	0	1	NaN	111	2	48	1	120	220	320	NaN	520	0.0338719743303955	1	1	NaN	3183320.6167763	NaN	3183321.6001529	3183322.11670673
49	20	0	0	90	36.1581920903955	36.241610738255	25	0.833412299863994	2	3	4	NaN	1	3	0.0455522286888362	0	1	NaN	112	2	49	1	120	220	320	NaN	520	0.0104209743440151	1	1	NaN	3183323.3837182	NaN	3183324.367097	3183324.88365233
49	20	0	0	90	36.1581920903955	36.241610738255	7	0.233355443961918	2	1	2	NaN	1	3	0.0455522286888362	0	1	NaN	113	2	50	1	120	220	320	NaN	520	0.0104101742617786	1	1	NaN	3183325.7005954	NaN	3183326.68399	3183327.20054043
49	20	0	0	90	36.1581920903955	36.241610738255	21	0.700066331885755	2	12	4	NaN	2	4	0.0455522286888362	0	1	NaN	114	2	51	1	120	220	320	NaN	520	0.625724974554032	1	0	NaN	3183328.0173479	NaN	3183329.0008844	3183329.51743083
49	20	0	0	90	36.1581920903955	36.241610738255	12	0.400037903934717	2	12	4	NaN	2	3	0.0455522286888362	0	1	NaN	115	2	52	1	120	220	320	NaN	520	0.491996922064573	1	0	NaN	3183330.9511085	NaN	3183331.9345276	3183332.45104958
49	20	0	0	90	36.1581920903955	36.241610738255	11	0.366701411940157	2	5	6	NaN	1	5	0.0455522286888362	0	1	NaN	116	2	53	1	120	220	320	NaN	520	1.91558217443526	1	1	NaN	3183333.7514128	NaN	3183334.7347858	3183335.25133583
49	20	0	0	90	36.1581920903955	36.241610738255	23	0.766739315874875	2	6	2	NaN	1	5	0.0455522286888362	0	1	NaN	117	2	54	1	120	220	320	NaN	520	0.0104402704164386	1	1	NaN	3183337.9851339	NaN	3183338.9685251	3183339.48507523
49	20	0	0	90	36.1581920903955	36.241610738255	18	0.600056855902076	2	3	6	NaN	1	5	0.0455522286888362	0	1	NaN	118	2	55	1	120	220	320	NaN	520	0.0104035739786923	1	1	NaN	3183340.3020609	NaN	3183341.2854193	3183341.80197763
49	20	0	0	90	36.1581920903955	36.241610738255	24	0.800075807869434	2	12	3	NaN	2	5	0.0455522286888362	0	1	NaN	119	2	56	1	120	220	320	NaN	520	0.0104181743226945	1	0	NaN	3183342.6189286	NaN	3183343.6023193	3183344.11886813
49	20	0	0	90	36.1581920903955	36.241610738255	0	0	1	9	5	NaN	2	3	0.0455522286888362	0	1	NaN	120	2	57	1	110	210	310	NaN	510	0.0104081742465496	1	0	NaN	3183344.952372	NaN	3183345.9358653	3183346.45243833
49	20	0	0	90	36.1581920903955	36.241610738255	23	0.766739315874875	2	12	6	NaN	2	5	0.0455522286888362	0	1	NaN	121	2	58	1	120	220	320	NaN	520	0.972608974203467	2	1	NaN	3183347.2860478	NaN	3183348.269446	3183348.78598783
49	20	0	0	90	36.1581920903955	36.241610738255	11	0.366701411940157	2	6	5	NaN	1	3	0.0455522286888362	0	1	NaN	122	2	59	1	120	220	320	NaN	520	0.0104123740456998	1	1	NaN	3183350.5695829	NaN	3183351.5531002	3183352.06964983
49	20	0	0	90	36.1581920903955	36.241610738255	8	0.266691935956478	2	6	3	NaN	1	5	0.0455522286888362	0	1	NaN	123	2	60	1	120	220	320	NaN	520	1.56412382656708	1	1	NaN	3183352.8864644	NaN	3183353.8699973	3183354.38654647
49	20	0	0	90	36.1581920903955	36.241610738255	8	0.266691935956478	2	11	5	NaN	2	5	0.0455522286888362	0	1	NaN	124	2	61	1	120	220	320	NaN	520	0.280553539283574	1	0	NaN	3183356.7703103	NaN	3183357.7536976	3183358.27027096
49	20	0	0	90	36.1581920903955	36.241610738255	6	0.200018951967359	2	9	3	NaN	2	4	0.0455522286888362	0	1	NaN	125	2	62	1	120	220	320	NaN	520	0.272132626269013	1	0	NaN	3183359.3705708	NaN	3183360.3539703	3183360.87051697
49	20	0	0	90	36.1581920903955	36.241610738255	14	0.466710887923837	2	1	1	NaN	1	3	0.0455522286888362	0	1	NaN	126	2	63	1	120	220	320	NaN	520	0.0104540702886879	1	1	NaN	3183361.9541458	NaN	3183362.9375519	3183363.45410133
49	20	0	0	90	36.1581920903955	36.241610738255	6	0.200018951967359	2	2	4	NaN	1	5	0.0455522286888362	0	1	NaN	127	3	1	1	120	220	320	NaN	520	0.0103919263929129	2	0	NaN	3183387.2898722	NaN	3183388.2733621	3183388.78993137
49	20	0	0	90	36.1581920903955	36.241610738255	20	0.666729839891195	2	10	6	NaN	2	5	0.0455522286888362	0	1	NaN	128	3	2	1	120	220	320	NaN	520	0.010416126344353	1	0	NaN	3183389.6068722	NaN	3183390.5902495	3183391.10682467
49	20	0	0	90	36.1581920903955	36.241610738255	10	0.333364919945598	2	2	5	NaN	1	3	0.0455522286888362	0	1	NaN	129	3	3	1	120	220	320	NaN	520	0.0104125742800534	2	0	NaN	3183391.9237678	NaN	3183392.9071623	3183393.42371553
49	20	0	0	90	36.1581920903955	36.241610738255	9	0.300028427951038	2	5	6	NaN	1	4	0.0455522286888362	0	1	NaN	130	3	4	1	120	220	320	NaN	520	0.0103963264264166	1	1	NaN	3183394.6240007	NaN	3183395.6074282	3183396.12398127
49	20	0	0	90	36.1581920903955	36.241610738255	22	0.733402823880315	2	5	5	NaN	1	5	0.0455522286888362	0	1	NaN	131	3	5	1	120	220	320	NaN	520	0.0104898745194077	1	1	NaN	3183397.2577092	NaN	3183398.2410176	3183398.75757773
49	20	0	0	90	36.1581920903955	36.241610738255	21	0.700066331885755	2	4	6	NaN	1	3	0.0455522286888362	0	1	NaN	132	3	6	1	120	220	320	NaN	520	1.66866557393223	1	1	NaN	3183399.5744894	NaN	3183400.5579204	3183401.07446483
49	20	0	0	90	36.1581920903955	36.241610738255	0	0	1	7	1	NaN	2	3	0.0455522286888362	0	1	NaN	133	3	7	1	110	210	310	NaN	510	0.0124635738320649	2	1	NaN	3183403.5581165	NaN	3183404.5416254	3183405.05819053
49	20	0	0	90	36.1581920903955	36.241610738255	19	0.633393347896635	2	7	2	NaN	2	3	0.0455522286888362	0	1	NaN	134	3	8	1	120	220	320	NaN	520	0.503242574166507	2	1	NaN	3183405.8918112	NaN	3183406.8752227	3183407.39175343
49	20	0	0	90	36.1581920903955	36.241610738255	7	0.233355443961918	2	12	2	NaN	2	3	0.0455522286888362	0	1	NaN	135	3	9	1	120	220	320	NaN	520	0.0104469703510404	2	1	NaN	3183408.7087397	NaN	3183409.6921339	3183410.20869683
49	20	0	0	90	36.1581920903955	36.241610738255	19	0.633393347896635	2	8	5	NaN	2	4	0.0455522286888362	0	1	NaN	136	3	10	1	120	220	320	NaN	520	1.33656922634691	1	0	NaN	3183411.0422724	NaN	3183412.0257154	3183412.54226597
49	20	0	0	90	36.1581920903955	36.241610738255	9	0.300028427951038	2	11	5	NaN	2	4	0.0455522286888362	0	1	NaN	137	3	11	1	120	220	320	NaN	520	0.814249678514898	1	0	NaN	3183414.6926891	NaN	3183415.6760842	3183416.19262422
49	20	0	0	90	36.1581920903955	36.241610738255	25	0.833412299863994	2	5	1	NaN	1	3	0.0455522286888362	0	1	NaN	138	3	12	1	120	220	320	NaN	520	0.0104016261175275	1	1	NaN	3183417.8096443	NaN	3183418.7930323	3183419.30959597
49	20	0	0	90	36.1581920903955	36.241610738255	14	0.466710887923837	2	9	2	NaN	2	3	0.0455522286888362	0	1	NaN	139	3	13	1	120	220	320	NaN	520	0.0104085742495954	2	1	NaN	3183420.1265353	NaN	3183421.1099401	3183421.62648613
49	20	0	0	90	36.1581920903955	36.241610738255	6	0.200018951967359	2	8	1	NaN	2	5	0.0455522286888362	0	1	NaN	140	3	14	1	120	220	320	NaN	520	0.0103949261829257	2	1	NaN	3183422.4434445	NaN	3183423.4268201	3183423.94338177
49	20	0	0	90	36.1581920903955	36.241610738255	17	0.566720363907516	2	8	6	NaN	2	5	0.0455522286888362	0	1	NaN	141	3	15	1	120	220	320	NaN	520	0.0103976260870695	2	1	NaN	3183424.7603103	NaN	3183425.7437204	3183426.26027267
49	20	0	0	90	36.1581920903955	36.241610738255	11	0.366701411940157	2	10	6	NaN	2	5	0.0455522286888362	0	1	NaN	142	3	16	1	120	220	320	NaN	520	1.79701262665913	1	0	NaN	3183427.0938544	NaN	3183428.0773621	3183428.59384377
49	20	0	0	90	36.1581920903955	36.241610738255	10	0.333364919945598	2	3	6	NaN	1	3	0.0455522286888362	0	1	NaN	143	3	17	1	120	220	320	NaN	520	0.010411974042654	1	1	NaN	3183431.1942926	NaN	3183432.1775787	3183432.69424563
49	20	0	0	90	36.1581920903955	36.241610738255	17	0.566720363907516	2	10	4	NaN	2	4	0.0455522286888362	0	1	NaN	144	3	18	1	120	220	320	NaN	520	0.355545574333519	1	0	NaN	3183433.711074	NaN	3183434.6946252	3183435.21114943
49	20	0	0	90	36.1581920903955	36.241610738255	0	0	1	10	2	NaN	2	4	0.0455522286888362	0	1	NaN	145	3	19	1	110	210	310	NaN	510	0.0103954263031483	1	0	NaN	3183436.3782217	NaN	3183437.3615422	3183437.87809047
49	20	0	0	90	36.1581920903955	36.241610738255	6	0.200018951967359	2	6	1	NaN	1	4	0.0455522286888362	0	1	NaN	146	3	20	1	120	220	320	NaN	520	0.0103795784525573	1	1	NaN	3183438.7116974	NaN	3183439.6950927	3183440.21165272
49	20	0	0	90	36.1581920903955	36.241610738255	9	0.300028427951038	2	7	6	NaN	2	5	0.0455522286888362	0	1	NaN	147	3	21	1	120	220	320	NaN	520	0.0104095740243793	1	0	NaN	3183441.0285395	NaN	3183442.0119871	3183442.52853893
49	20	0	0	90	36.1581920903955	36.241610738255	19	0.633393347896635	2	1	4	NaN	1	5	0.0455522286888362	0	1	NaN	148	3	22	1	120	220	320	NaN	520	0.0103923259302974	1	1	NaN	3183443.3453589	NaN	3183444.3288877	3183444.84544007
49	20	0	0	90	36.1581920903955	36.241610738255	13	0.433374395929277	2	11	4	NaN	2	5	0.0455522286888362	0	1	NaN	149	3	23	1	120	220	320	NaN	520	0.460279774386436	1	0	NaN	3183445.6790457	NaN	3183446.6624698	3183447.17899463
49	20	0	0	90	36.1581920903955	36.241610738255	12	0.400037903934717	2	4	2	NaN	1	5	0.0455522286888362	0	1	NaN	150	3	24	1	120	220	320	NaN	520	0.0104052741080523	1	1	NaN	3183448.4459899	NaN	3183449.4293974	3183449.94595213
49	20	0	0	90	36.1581920903955	36.241610738255	24	0.800075807869434	2	1	3	NaN	1	4	0.0455522286888362	0	1	NaN	151	3	25	1	120	220	320	NaN	520	0.0794164738617837	1	1	NaN	3183450.7795468	NaN	3183451.7629467	3183452.27949503
49	20	0	0	90	36.1581920903955	36.241610738255	8	0.266691935956478	2	1	6	NaN	1	5	0.0455522286888362	0	1	NaN	152	3	26	1	120	220	320	NaN	520	0.607742274180055	2	0	NaN	3183453.1631281	NaN	3183454.1465173	3183454.66306123
49	20	0	0	90	36.1581920903955	36.241610738255	8	0.266691935956478	2	1	6	NaN	1	4	0.0455522286888362	0	1	NaN	153	3	27	1	120	220	320	NaN	520	0.0103945783339441	2	0	NaN	3183456.0801679	NaN	3183457.0634697	3183457.58002592
49	20	0	0	90	36.1581920903955	36.241610738255	13	0.433374395929277	2	5	3	NaN	1	3	0.0455522286888362	0	1	NaN	154	3	28	1	120	220	320	NaN	520	0.222088274080306	1	1	NaN	3183458.3968908	NaN	3183459.3803878	3183459.89691203
49	20	0	0	90	36.1581920903955	36.241610738255	22	0.733402823880315	2	11	3	NaN	2	4	0.0455522286888362	0	1	NaN	155	3	29	1	120	220	320	NaN	520	0.424697274342179	2	1	NaN	3183460.9305618	NaN	3183461.9139531	3183462.43049743
49	20	0	0	90	36.1581920903955	36.241610738255	10	0.333364919945598	2	10	6	NaN	2	5	0.0455522286888362	0	1	NaN	156	3	30	1	120	220	320	NaN	520	1.7628240743652	1	0	NaN	3183463.6641787	NaN	3183464.6475661	3183465.16409603
49	20	0	0	90	36.1581920903955	36.241610738255	6	0.200018951967359	2	1	2	NaN	1	5	0.0455522286888362	0	1	NaN	157	3	31	1	120	220	320	NaN	520	2.60765452636406	1	1	NaN	3183467.7310843	NaN	3183468.7146135	3183469.23117197
49	20	0	0	90	36.1581920903955	36.241610738255	17	0.566720363907516	2	7	4	NaN	2	3	0.0455522286888362	0	1	NaN	158	3	32	1	120	220	320	NaN	520	1.1066054739058	2	1	NaN	3183472.6483737	NaN	3183473.6317522	3183474.14831233
49	20	0	0	90	36.1581920903955	36.241610738255	9	0.300028427951038	2	1	1	NaN	1	4	0.0455522286888362	0	1	NaN	159	3	33	1	120	220	320	NaN	520	0.0104233743622899	1	1	NaN	3183476.0654373	NaN	3183477.0487497	3183477.56531413
49	20	0	0	90	36.1581920903955	36.241610738255	20	0.666729839891195	2	9	3	NaN	2	5	0.0455522286888362	0	1	NaN	160	3	34	1	120	220	320	NaN	520	0.0104188742116094	1	0	NaN	3183478.3821357	NaN	3183479.3656491	3183479.88220753
49	20	0	0	90	36.1581920903955	36.241610738255	15	0.500047379918396	2	3	6	NaN	1	3	0.0455522286888362	0	1	NaN	161	3	35	1	120	220	320	NaN	520	0.0102908913977444	1	1	NaN	3183480.6991646	NaN	3183481.6825528	3183482.19910601
49	20	0	0	90	36.1581920903955	36.241610738255	15	0.500047379918396	2	1	5	NaN	1	5	0.0455522286888362	0	1	NaN	162	3	36	1	120	220	320	NaN	520	0.835313173942268	1	1	NaN	3183483.0159275	NaN	3183483.9994674	3183484.51599613
49	20	0	0	90	36.1581920903955	36.241610738255	7	0.233355443961918	2	3	6	NaN	1	5	0.0455522286888362	0	1	NaN	163	3	37	1	120	220	320	NaN	520	0.0104050738736987	1	1	NaN	3183486.5990429	NaN	3183487.5831661	3183488.09969263
49	20	0	0	90	36.1581920903955	36.241610738255	15	0.500047379918396	2	6	2	NaN	1	5	0.0455522286888362	0	1	NaN	164	3	38	1	120	220	320	NaN	520	0.0104299220256507	1	1	NaN	3183488.9333047	NaN	3183489.9166894	3183490.43324788
49	20	0	0	90	36.1581920903955	36.241610738255	17	0.566720363907516	2	9	2	NaN	2	3	0.0455522286888362	0	1	NaN	165	3	39	1	120	220	320	NaN	520	0.472700122278184	2	1	NaN	3183491.2501988	NaN	3183492.2335821	3183492.75015918
49	20	0	0	90	36.1581920903955	36.241610738255	16	0.533383871912956	2	5	5	NaN	1	5	0.0455522286888362	0	1	NaN	166	3	40	1	120	220	320	NaN	520	0.0103943264111876	1	1	NaN	3183494.0337511	NaN	3183495.0171972	3183495.53375297
49	20	0	0	90	36.1581920903955	36.241610738255	12	0.400037903934717	2	1	4	NaN	1	5	0.0455522286888362	0	1	NaN	167	3	41	1	120	220	320	NaN	520	0.0102892913855612	1	1	NaN	3183496.3507153	NaN	3183497.3340895	3183497.85064281
49	20	0	0	90	36.1581920903955	36.241610738255	8	0.266691935956478	2	7	6	NaN	2	5	0.0455522286888362	0	1	NaN	168	3	42	1	120	220	320	NaN	520	0.183449726551771	2	1	NaN	3183498.6675933	NaN	3183499.6509623	3183500.16754387
49	20	0	0	90	36.1581920903955	36.241610738255	22	0.733402823880315	2	1	6	NaN	1	4	0.0455522286888362	0	1	NaN	169	3	43	1	120	220	320	NaN	520	0.843916474375874	1	1	NaN	3183501.1511752	NaN	3183502.1345587	3183502.65111173
49	20	0	0	90	36.1581920903955	36.241610738255	16	0.533383871912956	2	9	2	NaN	2	3	0.0455522286888362	0	1	NaN	170	3	44	1	120	220	320	NaN	520	0.549267522059381	1	0	NaN	3183504.3014191	NaN	3183505.2848819	3183505.80142498
49	20	0	0	90	36.1581920903955	36.241610738255	7	0.233355443961918	2	10	3	NaN	2	4	0.0455522286888362	0	1	NaN	171	3	45	1	120	220	320	NaN	520	0.0505899218842387	2	1	NaN	3183507.1684185	NaN	3183508.1518239	3183508.66836908
49	20	0	0	90	36.1581920903955	36.241610738255	21	0.700066331885755	2	10	5	NaN	2	5	0.0455522286888362	0	1	NaN	172	3	46	1	120	220	320	NaN	520	1.45163627434522	1	0	NaN	3183509.5351923	NaN	3183510.5187235	3183511.03527633
49	20	0	0	90	36.1581920903955	36.241610738255	6	0.200018951967359	2	11	5	NaN	2	3	0.0455522286888362	0	1	NaN	173	3	47	1	120	220	320	NaN	520	1.26864037429914	1	0	NaN	3183513.302366	NaN	3183514.2857528	3183514.80231313
49	20	0	0	90	36.1581920903955	36.241610738255	14	0.466710887923837	2	5	4	NaN	1	5	0.0455522286888362	0	1	NaN	174	3	48	1	120	220	320	NaN	520	1.22104517417029	1	1	NaN	3183516.8860408	NaN	3183517.8694521	3183518.38599483
49	20	0	0	90	36.1581920903955	36.241610738255	20	0.666729839891195	2	7	2	NaN	2	5	0.0455522286888362	0	1	NaN	175	3	49	1	120	220	320	NaN	520	0.51919197384268	1	0	NaN	3183520.4196753	NaN	3183521.4031261	3183521.91967413
49	20	0	0	90	36.1581920903955	36.241610738255	0	0	1	3	2	NaN	1	4	0.0455522286888362	0	1	NaN	176	3	50	1	110	210	310	NaN	510	0.109921773895621	1	1	NaN	3183523.2533329	NaN	3183524.2368448	3183524.75328083
49	20	0	0	90	36.1581920903955	36.241610738255	23	0.766739315874875	2	1	3	NaN	1	4	0.0455522286888362	0	1	NaN	177	3	51	1	120	220	320	NaN	520	0.0103492825292051	2	0	NaN	3183525.6868398	NaN	3183526.6703395	3183527.18686742
49	20	0	0	90	36.1581920903955	36.241610738255	25	0.833412299863994	2	7	3	NaN	2	5	0.0455522286888362	0	1	NaN	178	3	52	1	120	220	320	NaN	520	0.0547291743569076	2	1	NaN	3183528.0204635	NaN	3183529.0038595	3183529.52041853
49	20	0	0	90	36.1581920903955	36.241610738255	25	0.833412299863994	2	2	6	NaN	1	5	0.0455522286888362	0	1	NaN	179	3	53	1	120	220	320	NaN	520	0.351561826188117	1	1	NaN	3183530.3873727	NaN	3183531.3708083	3183531.88731607
49	20	0	0	90	36.1581920903955	36.241610738255	23	0.766739315874875	2	6	6	NaN	1	3	0.0455522286888362	0	1	NaN	180	3	54	1	120	220	320	NaN	520	0.0104101742617786	1	1	NaN	3183533.0543271	NaN	3183534.0377062	3183534.55426513
49	20	0	0	90	36.1581920903955	36.241610738255	22	0.733402823880315	2	2	6	NaN	1	5	0.0455522286888362	0	1	NaN	181	3	55	1	120	220	320	NaN	520	0.0311626782640815	1	1	NaN	3183535.3878607	NaN	3183536.3712577	3183536.88782072
49	20	0	0	90	36.1581920903955	36.241610738255	20	0.666729839891195	2	6	1	NaN	1	4	0.0455522286888362	0	1	NaN	182	3	56	1	120	220	320	NaN	520	0.0104259219951928	1	1	NaN	3183538.1214742	NaN	3183539.104845	3183539.62141138
49	20	0	0	90	36.1581920903955	36.241610738255	13	0.433374395929277	2	9	3	NaN	2	3	0.0455522286888362	0	1	NaN	183	3	57	1	120	220	320	NaN	520	0.900556674227118	2	1	NaN	3183540.438256	NaN	3183541.4217581	3183541.93831413
49	20	0	0	90	36.1581920903955	36.241610738255	18	0.600056855902076	2	9	5	NaN	2	3	0.0455522286888362	0	1	NaN	184	3	58	1	120	220	320	NaN	520	0.020907826256007	1	0	NaN	3183544.0219969	NaN	3183545.005439	3183545.52199817
49	20	0	0	90	36.1581920903955	36.241610738255	6	0.200018951967359	2	4	5	NaN	1	4	0.0455522286888362	0	1	NaN	185	3	59	1	120	220	320	NaN	520	0.0104140741750598	1	1	NaN	3183546.3556064	NaN	3183547.3390006	3183547.85556023
49	20	0	0	90	36.1581920903955	36.241610738255	24	0.800075807869434	2	6	1	NaN	1	5	0.0455522286888362	0	1	NaN	186	3	60	1	120	220	320	NaN	520	2.03454647399485	2	0	NaN	3183548.6725121	NaN	3183549.6559136	3183550.17244823
49	20	0	0	90	36.1581920903955	36.241610738255	15	0.500047379918396	2	7	1	NaN	2	3	0.0455522286888362	0	1	NaN	187	3	61	1	120	220	320	NaN	520	0.0102856918238103	2	1	NaN	3183553.0229283	NaN	3183554.0063167	3183554.52288711
49	20	0	0	90	36.1581920903955	36.241610738255	10	0.333364919945598	2	6	6	NaN	1	4	0.0455522286888362	0	1	NaN	188	3	62	1	120	220	320	NaN	520	0.0104361223056912	1	1	NaN	3183555.3564829	NaN	3183556.3398878	3183556.85643678
49	20	0	0	90	36.1581920903955	36.241610738255	14	0.466710887923837	2	10	2	NaN	2	3	0.0455522286888362	0	1	NaN	189	3	63	1	120	220	320	NaN	520	0.456979826558381	1	0	NaN	3183557.6900524	NaN	3183558.6734326	3183559.18999847
49	20	0	0	90	36.1581920903955	36.241610738255	7	0.233355443961918	2	1	2	NaN	1	3	0.0455522286888362	0	1	NaN	190	4	1	1	120	220	320	NaN	520	0.505419522058219	2	0	NaN	3183584.0259834	NaN	3183585.0093562	3183585.52591808
49	20	0	0	90	36.1581920903955	36.241610738255	0	0	1	11	4	NaN	2	4	0.0455522286888362	0	1	NaN	191	4	2	1	110	210	310	NaN	510	0.0882124262861907	2	1	NaN	3183586.8427918	NaN	3183587.8263318	3183588.34286277
49	20	0	0	90	36.1581920903955	36.241610738255	6	0.200018951967359	2	7	2	NaN	2	3	0.0455522286888362	0	1	NaN	192	4	3	1	120	220	320	NaN	520	0.0879134740680456	1	0	NaN	3183589.2430502	NaN	3183590.226599	3183590.74310443
49	20	0	0	90	36.1581920903955	36.241610738255	23	0.766739315874875	2	3	2	NaN	1	3	0.0455522286888362	0	1	NaN	193	4	4	1	120	220	320	NaN	520	0.216099526267499	1	1	NaN	3183591.6434772	NaN	3183592.6267887	3183593.14334427
49	20	0	0	90	36.1581920903955	36.241610738255	13	0.433374395929277	2	7	1	NaN	2	5	0.0455522286888362	0	1	NaN	194	4	5	1	120	220	320	NaN	520	0.985860574059188	1	0	NaN	3183594.177006	NaN	3183595.1603546	3183595.67692873
49	20	0	0	90	36.1581920903955	36.241610738255	15	0.500047379918396	2	8	3	NaN	2	4	0.0455522286888362	0	1	NaN	195	4	6	1	120	220	320	NaN	520	0.517882573883981	2	1	NaN	3183597.4773084	NaN	3183598.460695	3183598.97724393
49	20	0	0	90	36.1581920903955	36.241610738255	24	0.800075807869434	2	8	2	NaN	2	4	0.0455522286888362	0	1	NaN	196	4	7	1	120	220	320	NaN	520	0.676668622065336	1	0	NaN	3183600.3108884	NaN	3183601.2943331	3183601.81085388
49	20	0	0	90	36.1581920903955	36.241610738255	13	0.433374395929277	2	1	6	NaN	1	3	0.0455522286888362	0	1	NaN	197	4	8	1	120	220	320	NaN	520	0.644823070149869	1	1	NaN	3183603.2945701	NaN	3183604.277937	3183604.79449253
49	20	0	0	90	36.1581920903955	36.241610738255	19	0.633393347896635	2	4	6	NaN	1	3	0.0455522286888362	0	1	NaN	198	4	9	1	120	220	320	NaN	520	0.326413673814386	1	1	NaN	3183606.244826	NaN	3183607.2282229	3183607.74477453
49	20	0	0	90	36.1581920903955	36.241610738255	13	0.433374395929277	2	4	5	NaN	1	3	0.0455522286888362	0	1	NaN	199	4	10	1	120	220	320	NaN	520	0.140444574411958	1	1	NaN	3183608.895081	NaN	3183609.8784979	3183610.39503263
49	20	0	0	90	36.1581920903955	36.241610738255	23	0.766739315874875	2	2	1	NaN	1	5	0.0455522286888362	0	1	NaN	200	4	11	1	120	220	320	NaN	520	0.0103944265283644	1	1	NaN	3183611.3453238	NaN	3183612.3287239	3183612.84528477
49	20	0	0	90	36.1581920903955	36.241610738255	17	0.566720363907516	2	6	3	NaN	1	4	0.0455522286888362	0	1	NaN	201	4	12	1	120	220	320	NaN	520	0.0103957261890173	1	1	NaN	3183613.6788867	NaN	3183614.6622938	3183615.17883817
49	20	0	0	90	36.1581920903955	36.241610738255	9	0.300028427951038	2	6	2	NaN	1	3	0.0455522286888362	0	1	NaN	202	4	13	1	120	220	320	NaN	520	0.0104273222386837	1	1	NaN	3183615.9957807	NaN	3183616.979216	3183617.49572608
49	20	0	0	90	36.1581920903955	36.241610738255	15	0.500047379918396	2	8	4	NaN	2	4	0.0455522286888362	0	1	NaN	203	4	14	1	120	220	320	NaN	520	0.049824473913759	1	0	NaN	3183618.3293154	NaN	3183619.3127562	3183619.82929493
49	20	0	0	90	36.1581920903955	36.241610738255	24	0.800075807869434	2	7	5	NaN	2	5	0.0455522286888362	0	1	NaN	204	4	15	1	120	220	320	NaN	520	0.0348962219431996	1	0	NaN	3183620.6961171	NaN	3183621.6796445	3183622.19619828
49	20	0	0	90	36.1581920903955	36.241610738255	18	0.600056855902076	2	10	2	NaN	2	5	0.0455522286888362	0	1	NaN	205	4	16	1	120	220	320	NaN	520	0.0104113738052547	1	0	NaN	3183623.0296807	NaN	3183624.0132004	3183624.52976723
49	20	0	0	90	36.1581920903955	36.241610738255	0	0	1	10	4	NaN	2	4	0.0455522286888362	0	1	NaN	206	4	17	1	110	210	310	NaN	510	0.413144174031913	2	1	NaN	3183625.8300625	NaN	3183626.8134796	3183627.33003443
49	20	0	0	90	36.1581920903955	36.241610738255	25	0.833412299863994	2	2	5	NaN	1	3	0.0455522286888362	0	1	NaN	207	4	18	1	120	220	320	NaN	520	0.247328674420714	1	1	NaN	3183628.5636805	NaN	3183629.5470943	3183630.06363183
49	20	0	0	90	36.1581920903955	36.241610738255	18	0.600056855902076	2	3	1	NaN	1	4	0.0455522286888362	0	1	NaN	208	4	19	1	120	220	320	NaN	520	0.59339417424053	1	1	NaN	3183631.113966	NaN	3183632.0973353	3183632.61388723
49	20	0	0	90	36.1581920903955	36.241610738255	24	0.800075807869434	2	3	5	NaN	1	5	0.0455522286888362	0	1	NaN	209	4	20	1	120	220	320	NaN	520	0.0608410267159343	1	1	NaN	3183634.014208	NaN	3183634.9976211	3183635.51417247
49	20	0	0	90	36.1581920903955	36.241610738255	17	0.566720363907516	2	7	3	NaN	2	5	0.0455522286888362	0	1	NaN	210	4	21	1	120	220	320	NaN	520	0.0104193221777678	1	0	NaN	3183636.397751	NaN	3183637.3811758	3183637.89773958
49	20	0	0	90	36.1581920903955	36.241610738255	11	0.366701411940157	2	7	6	NaN	2	3	0.0455522286888362	0	1	NaN	211	4	22	1	120	220	320	NaN	520	0.742678487207741	2	1	NaN	3183638.7646143	NaN	3183639.7480899	3183640.26464751
49	20	0	0	90	36.1581920903955	36.241610738255	16	0.533383871912956	2	6	3	NaN	1	5	0.0455522286888362	0	1	NaN	212	4	23	1	120	220	320	NaN	520	0.0104104741476476	1	1	NaN	3183642.1817047	NaN	3183643.1650938	3183643.68164323
49	20	0	0	90	36.1581920903955	36.241610738255	14	0.466710887923837	2	6	3	NaN	1	4	0.0455522286888362	0	1	NaN	213	4	24	1	120	220	320	NaN	520	0.256998574361205	1	1	NaN	3183644.4985607	NaN	3183645.4820403	3183645.99852973
49	20	0	0	90	36.1581920903955	36.241610738255	19	0.633393347896635	2	6	3	NaN	1	5	0.0455522286888362	0	1	NaN	214	4	25	1	120	220	320	NaN	520	0.0104232737794518	1	1	NaN	3183647.4821842	NaN	3183648.4656019	3183648.98216303
49	20	0	0	90	36.1581920903955	36.241610738255	21	0.700066331885755	2	2	4	NaN	1	5	0.0455522286888362	0	1	NaN	215	4	26	1	120	220	320	NaN	520	0.163834773935378	1	1	NaN	3183649.8157573	NaN	3183650.7991658	3183651.31572173
49	20	0	0	90	36.1581920903955	36.241610738255	0	0	1	6	5	NaN	1	5	0.0455522286888362	0	1	NaN	216	4	27	1	110	210	310	NaN	510	0.0104014743119478	1	1	NaN	3183652.2826977	NaN	3183653.2660803	3183653.78263383
49	20	0	0	90	36.1581920903955	36.241610738255	20	0.666729839891195	2	11	4	NaN	2	3	0.0455522286888362	0	1	NaN	217	4	28	1	120	220	320	NaN	520	0.698993121739477	2	1	NaN	3183654.6162929	NaN	3183655.5996574	3183656.11619438
49	20	0	0	90	36.1581920903955	36.241610738255	8	0.266691935956478	2	8	6	NaN	2	5	0.0455522286888362	0	1	NaN	218	4	29	1	120	220	320	NaN	520	0.0104069742374122	2	1	NaN	3183657.6332135	NaN	3183658.6166046	3183659.13315643
49	20	0	0	90	36.1581920903955	36.241610738255	22	0.733402823880315	2	6	5	NaN	1	3	0.0455522286888362	0	1	NaN	219	4	30	1	120	220	320	NaN	520	0.141517278272659	1	1	NaN	3183659.950098	NaN	3183660.9334968	3183661.45005722
49	20	0	0	90	36.1581920903955	36.241610738255	8	0.266691935956478	2	10	2	NaN	2	5	0.0455522286888362	0	1	NaN	220	4	31	1	120	220	320	NaN	520	0.0102496477775276	1	0	NaN	3183662.4003523	NaN	3183663.3837677	3183663.90032415
49	20	0	0	90	36.1581920903955	36.241610738255	19	0.633393347896635	2	7	3	NaN	2	5	0.0455522286888362	0	1	NaN	221	4	32	1	120	220	320	NaN	520	0.18235982209444	1	0	NaN	3183664.7172339	NaN	3183665.7006331	3183666.21718408
49	20	0	0	90	36.1581920903955	36.241610738255	12	0.400037903934717	2	9	1	NaN	2	5	0.0455522286888362	0	1	NaN	222	4	33	1	120	220	320	NaN	520	0.0104291741736233	2	1	NaN	3183667.2173985	NaN	3183668.200884	3183668.71743803
49	20	0	0	90	36.1581920903955	36.241610738255	18	0.600056855902076	2	1	2	NaN	1	5	0.0455522286888362	0	1	NaN	223	4	34	1	120	220	320	NaN	520	1.12458982598037	1	1	NaN	3183669.5510642	NaN	3183670.5344445	3183671.05100067
49	20	0	0	90	36.1581920903955	36.241610738255	10	0.333364919945598	2	9	4	NaN	2	4	0.0455522286888362	0	1	NaN	224	4	35	1	120	220	320	NaN	520	0.0265424740500748	1	0	NaN	3183672.984698	NaN	3183673.968119	3183674.48467523
49	20	0	0	90	36.1581920903955	36.241610738255	10	0.333364919945598	2	8	6	NaN	2	5	0.0455522286888362	0	1	NaN	225	4	36	1	120	220	320	NaN	520	0.0104910260997713	2	1	NaN	3183675.3183075	NaN	3183676.301672	3183676.81822967
49	20	0	0	90	36.1581920903955	36.241610738255	17	0.566720363907516	2	11	2	NaN	2	4	0.0455522286888362	0	1	NaN	226	4	37	1	120	220	320	NaN	520	0.503414826001972	1	0	NaN	3183677.6518445	NaN	3183678.6352332	3183679.15179737
49	20	0	0	90	36.1581920903955	36.241610738255	18	0.600056855902076	2	8	3	NaN	2	3	0.0455522286888362	0	1	NaN	227	4	38	1	120	220	320	NaN	520	0.470801326446235	1	0	NaN	3183680.4687858	NaN	3183681.452191	3183681.96873937
49	20	0	0	90	36.1581920903955	36.241610738255	17	0.566720363907516	2	2	5	NaN	1	3	0.0455522286888362	0	1	NaN	228	4	39	1	120	220	320	NaN	520	0.0628283745609224	1	1	NaN	3183683.2523827	NaN	3183684.2357952	3183684.75234433
49	20	0	0	90	36.1581920903955	36.241610738255	8	0.266691935956478	2	12	2	NaN	2	3	0.0455522286888362	0	1	NaN	229	4	40	1	120	220	320	NaN	520	0.0103961261920631	2	1	NaN	3183685.63597	NaN	3183686.6193668	3183687.13591237
49	20	0	0	90	36.1581920903955	36.241610738255	17	0.566720363907516	2	5	4	NaN	1	4	0.0455522286888362	0	1	NaN	230	4	41	1	120	220	320	NaN	520	1.08283647382632	1	1	NaN	3183687.9528596	NaN	3183688.936256	3183689.45280193
49	20	0	0	90	36.1581920903955	36.241610738255	6	0.200018951967359	2	3	2	NaN	1	3	0.0455522286888362	0	1	NaN	231	4	42	1	120	220	320	NaN	520	0.0104130739346147	1	1	NaN	3183691.3531994	NaN	3183692.3366015	3183692.85315723
49	20	0	0	90	36.1581920903955	36.241610738255	8	0.266691935956478	2	8	6	NaN	2	4	0.0455522286888362	0	1	NaN	232	4	43	1	120	220	320	NaN	520	0.0104246740229428	2	1	NaN	3183693.6700797	NaN	3183694.6534875	3183695.17002733
49	20	0	0	90	36.1581920903955	36.241610738255	23	0.766739315874875	2	8	4	NaN	2	5	0.0455522286888362	0	1	NaN	233	4	44	1	120	220	320	NaN	520	0.120387973729521	2	1	NaN	3183695.9868769	NaN	3183696.9703715	3183697.48692433
49	20	0	0	90	36.1581920903955	36.241610738255	19	0.633393347896635	2	12	4	NaN	2	4	0.0455522286888362	0	1	NaN	234	4	45	1	120	220	320	NaN	520	0.50286042643711	2	1	NaN	3183698.4205885	NaN	3183699.4039397	3183699.92049467
49	20	0	0	90	36.1581920903955	36.241610738255	20	0.666729839891195	2	7	1	NaN	2	3	0.0455522286888362	0	1	NaN	235	4	46	1	120	220	320	NaN	520	0.0103944265283644	2	1	NaN	3183701.2375656	NaN	3183702.2208923	3183702.73744617
49	20	0	0	90	36.1581920903955	36.241610738255	7	0.233355443961918	2	7	5	NaN	2	5	0.0455522286888362	0	1	NaN	236	4	47	1	120	220	320	NaN	520	0.0104146744124591	2	1	NaN	3183703.5542756	NaN	3183704.5378254	3183705.05433823
49	20	0	0	90	36.1581920903955	36.241610738255	12	0.400037903934717	2	10	3	NaN	2	3	0.0455522286888362	0	1	NaN	237	4	48	1	120	220	320	NaN	520	0.555721674114466	1	0	NaN	3183705.8879447	NaN	3183706.8713436	3183707.38790183
49	20	0	0	90	36.1581920903955	36.241610738255	11	0.366701411940157	2	4	1	NaN	1	5	0.0455522286888362	0	1	NaN	238	4	49	1	120	220	320	NaN	520	0.0104111740365624	1	1	NaN	3183708.7549142	NaN	3183709.7383203	3183710.25485373
49	20	0	0	90	36.1581920903955	36.241610738255	21	0.700066331885755	2	1	6	NaN	1	3	0.0455522286888362	0	1	NaN	239	4	50	1	120	220	320	NaN	520	0.0914084739051759	2	0	NaN	3183711.0718036	NaN	3183712.055188	3183712.57174103
49	20	0	0	90	36.1581920903955	36.241610738255	10	0.333364919945598	2	10	6	NaN	2	5	0.0455522286888362	0	1	NaN	240	4	51	1	120	220	320	NaN	520	0.0104149742983282	2	1	NaN	3183713.4887422	NaN	3183714.4720886	3183714.98864793
49	20	0	0	90	36.1581920903955	36.241610738255	12	0.400037903934717	2	2	6	NaN	1	4	0.0455522286888362	0	1	NaN	241	4	52	1	120	220	320	NaN	520	0.0104147745296359	1	1	NaN	3183715.8056289	NaN	3183716.7889991	3183717.30553683
49	20	0	0	90	36.1581920903955	36.241610738255	8	0.266691935956478	2	9	2	NaN	2	3	0.0455522286888362	0	1	NaN	242	4	53	1	120	220	320	NaN	520	0.0104234218597412	1	0	NaN	3183718.1224856	NaN	3183719.1058726	3183719.62243868
49	20	0	0	90	36.1581920903955	36.241610738255	25	0.833412299863994	2	11	3	NaN	2	5	0.0455522286888362	0	1	NaN	243	4	54	1	120	220	320	NaN	520	0.203349774237722	2	1	NaN	3183720.4560482	NaN	3183721.4394489	3183721.95599673
49	20	0	0	90	36.1581920903955	36.241610738255	12	0.400037903934717	2	12	2	NaN	2	4	0.0455522286888362	0	1	NaN	244	4	55	1	120	220	320	NaN	520	0.0104238744825125	2	1	NaN	3183722.9729577	NaN	3183723.9563608	3183724.47291483
49	20	0	0	90	36.1581920903955	36.241610738255	19	0.633393347896635	2	1	3	NaN	1	4	0.0455522286888362	0	1	NaN	245	4	56	1	120	220	320	NaN	520	1.12972707394511	2	0	NaN	3183725.2898611	NaN	3183726.2732566	3183726.78980523
49	20	0	0	90	36.1581920903955	36.241610738255	14	0.466710887923837	2	1	3	NaN	1	4	0.0455522286888362	0	1	NaN	246	4	57	1	120	220	320	NaN	520	0.0104579743929207	2	0	NaN	3183728.7235423	NaN	3183729.7069158	3183730.22347953
49	20	0	0	90	36.1581920903955	36.241610738255	7	0.233355443961918	2	2	4	NaN	1	4	0.0455522286888362	0	1	NaN	247	4	58	1	120	220	320	NaN	520	0.0102569959126413	1	1	NaN	3183731.0569729	NaN	3183732.0404813	3183732.5570521
49	20	0	0	90	36.1581920903955	36.241610738255	11	0.366701411940157	2	2	3	NaN	1	5	0.0455522286888362	0	1	NaN	248	4	59	1	120	220	320	NaN	520	0.12549867387861	1	1	NaN	3183733.3738681	NaN	3183734.357385	3183734.87393573
49	20	0	0	90	36.1581920903955	36.241610738255	8	0.266691935956478	2	4	5	NaN	1	5	0.0455522286888362	0	1	NaN	249	4	60	1	120	220	320	NaN	520	0.0104235224425793	1	1	NaN	3183735.8075749	NaN	3183736.7909649	3183737.30750118
49	20	0	0	90	36.1581920903955	36.241610738255	14	0.466710887923837	2	8	4	NaN	2	5	0.0455522286888362	0	1	NaN	250	4	61	1	120	220	320	NaN	520	0.862830922007561	1	0	NaN	3183738.1243497	NaN	3183739.1079015	3183739.62439528
49	20	0	0	90	36.1581920903955	36.241610738255	10	0.333364919945598	2	5	2	NaN	1	4	0.0455522286888362	0	1	NaN	251	4	62	1	120	220	320	NaN	520	0.231811622157693	1	1	NaN	3183741.2914588	NaN	3183742.2748549	3183742.79137318
49	20	0	0	90	36.1581920903955	36.241610738255	0	0	1	2	3	NaN	1	5	0.0455522286888362	0	1	NaN	252	4	63	1	110	210	310	NaN	510	0.0102580958046019	1	1	NaN	3183743.8415563	NaN	3183744.8250733	3183745.341643
49	20	0	0	90	36.1581920903955	36.241610738255	10	0.333364919945598	2	11	1	NaN	2	3	0.0455522286888362	0	1	NaN	253	5	1	1	120	220	320	NaN	520	0.0352574218995869	2	1	NaN	3183780.5120546	NaN	3183781.4953574	3183782.01189418
49	20	0	0	90	36.1581920903955	36.241610738255	17	0.566720363907516	2	4	4	NaN	1	4	0.0455522286888362	0	1	NaN	254	5	2	1	120	220	320	NaN	520	0.573143674060702	2	0	NaN	3183782.8621807	NaN	3183783.8455815	3183784.36212883
49	20	0	0	90	36.1581920903955	36.241610738255	24	0.800075807869434	2	1	4	NaN	1	3	0.0455522286888362	0	1	NaN	255	5	3	1	120	220	320	NaN	520	0.689858539495617	1	1	NaN	3183785.7457914	NaN	3183786.7292127	3183787.24575076
49	20	0	0	90	36.1581920903955	36.241610738255	12	0.400037903934717	2	6	6	NaN	1	4	0.0455522286888362	0	1	NaN	256	5	4	1	120	220	320	NaN	520	0.0813000262714922	1	1	NaN	3183788.7459819	NaN	3183789.7295165	3183790.24603927
49	20	0	0	90	36.1581920903955	36.241610738255	11	0.366701411940157	2	1	1	NaN	1	5	0.0455522286888362	0	1	NaN	257	5	5	1	120	220	320	NaN	520	0.249529774300754	2	0	NaN	3183791.1296685	NaN	3183792.1130517	3183792.62961313
49	20	0	0	90	36.1581920903955	36.241610738255	19	0.633393347896635	2	10	3	NaN	2	3	0.0455522286888362	0	1	NaN	258	5	6	1	120	220	320	NaN	520	0.170763974078	1	0	NaN	3183793.6965907	NaN	3183794.6799658	3183795.19653663
49	20	0	0	90	36.1581920903955	36.241610738255	7	0.233355443961918	2	6	2	NaN	1	3	0.0455522286888362	0	1	NaN	259	5	7	1	120	220	320	NaN	520	0.010439770296216	1	1	NaN	3183796.1801542	NaN	3183797.163544	3183797.68010263
49	20	0	0	90	36.1581920903955	36.241610738255	11	0.366701411940157	2	3	3	NaN	1	3	0.0455522286888362	0	1	NaN	260	5	8	1	120	220	320	NaN	520	0.0104223741218448	1	1	NaN	3183798.5137361	NaN	3183799.4971231	3183800.01367093
49	20	0	0	90	36.1581920903955	36.241610738255	23	0.766739315874875	2	4	3	NaN	1	5	0.0455522286888362	0	1	NaN	261	5	9	1	120	220	320	NaN	520	0.116890222299844	1	1	NaN	3183800.8304905	NaN	3183801.8140191	3183802.33055678
49	20	0	0	90	36.1581920903955	36.241610738255	15	0.500047379918396	2	5	5	NaN	1	4	0.0455522286888362	0	1	NaN	262	5	10	1	120	220	320	NaN	520	0.187288374174386	1	1	NaN	3183803.2641937	NaN	3183804.2475988	3183804.76414353
49	20	0	0	90	36.1581920903955	36.241610738255	10	0.333364919945598	2	12	3	NaN	2	4	0.0455522286888362	0	1	NaN	263	5	11	1	120	220	320	NaN	520	0.0104087740182877	2	1	NaN	3183805.7644338	NaN	3183806.7478252	3183807.26438253
49	20	0	0	90	36.1581920903955	36.241610738255	11	0.366701411940157	2	12	5	NaN	2	3	0.0455522286888362	0	1	NaN	264	5	12	1	120	220	320	NaN	520	0.0821067742072046	2	1	NaN	3183808.0813378	NaN	3183809.0647283	3183809.58127703
49	20	0	0	90	36.1581920903955	36.241610738255	10	0.333364919945598	2	8	2	NaN	2	3	0.0455522286888362	0	1	NaN	265	5	13	1	120	220	320	NaN	520	0.0104172741994262	2	1	NaN	3183810.4815739	NaN	3183811.4649684	3183811.98150593
49	20	0	0	90	36.1581920903955	36.241610738255	22	0.733402823880315	2	10	3	NaN	2	3	0.0455522286888362	0	1	NaN	266	5	14	1	120	220	320	NaN	520	0.140712274238467	2	1	NaN	3183812.7984694	NaN	3183813.7819653	3183814.29840663
49	20	0	0	90	36.1581920903955	36.241610738255	20	0.666729839891195	2	10	5	NaN	2	3	0.0455522286888362	0	1	NaN	267	5	15	1	120	220	320	NaN	520	0.579032674431801	2	1	NaN	3183815.248691	NaN	3183816.2321223	3183816.74864693
49	20	0	0	90	36.1581920903955	36.241610738255	11	0.366701411940157	2	11	3	NaN	2	5	0.0455522286888362	0	1	NaN	268	5	16	1	120	220	320	NaN	520	0.102474939078093	2	1	NaN	3183818.1490019	NaN	3183819.13238	3183819.64892986
49	20	0	0	90	36.1581920903955	36.241610738255	22	0.733402823880315	2	8	2	NaN	2	4	0.0455522286888362	0	1	NaN	269	5	17	1	120	220	320	NaN	520	0.0104150744155049	2	1	NaN	3183820.5658837	NaN	3183821.5492904	3183822.06583583
49	20	0	0	90	36.1581920903955	36.241610738255	7	0.233355443961918	2	2	2	NaN	1	5	0.0455522286888362	0	1	NaN	270	5	18	1	120	220	320	NaN	520	0.384650073945522	2	0	NaN	3183822.8826499	NaN	3183823.8661958	3183824.38273133
49	20	0	0	90	36.1581920903955	36.241610738255	10	0.333364919945598	2	11	1	NaN	2	4	0.0455522286888362	0	1	NaN	271	5	19	1	120	220	320	NaN	520	0.436701074242592	2	1	NaN	3183825.5830838	NaN	3183826.566447	3183827.08300183
49	20	0	0	90	36.1581920903955	36.241610738255	18	0.600056855902076	2	5	4	NaN	1	4	0.0455522286888362	0	1	NaN	272	5	20	1	120	220	320	NaN	520	0.24649167386815	2	0	NaN	3183828.3333199	NaN	3183829.316729	3183829.83326653
49	20	0	0	90	36.1581920903955	36.241610738255	6	0.200018951967359	2	4	1	NaN	1	3	0.0455522286888362	0	1	NaN	273	5	21	1	120	220	320	NaN	520	0.0104109742678702	1	1	NaN	3183830.9002453	NaN	3183831.8836384	3183832.40018753
49	20	0	0	90	36.1581920903955	36.241610738255	25	0.833412299863994	2	10	1	NaN	2	5	0.0455522286888362	0	1	NaN	274	5	22	1	120	220	320	NaN	520	0.378352578729391	2	1	NaN	3183833.2170875	NaN	3183834.2005132	3183834.71707422
49	20	0	0	90	36.1581920903955	36.241610738255	18	0.600056855902076	2	9	3	NaN	2	5	0.0455522286888362	0	1	NaN	275	5	23	1	120	220	320	NaN	520	0.0298236263915896	2	1	NaN	3183835.9174196	NaN	3183836.9007941	3183837.41734837
49	20	0	0	90	36.1581920903955	36.241610738255	16	0.533383871912956	2	10	2	NaN	2	4	0.0455522286888362	0	1	NaN	276	5	24	1	120	220	320	NaN	520	0.0104051744565368	1	0	NaN	3183838.267628	NaN	3183839.2509198	3183839.76757313
49	20	0	0	90	36.1581920903955	36.241610738255	14	0.466710887923837	2	6	6	NaN	1	3	0.0455522286888362	0	1	NaN	277	5	25	1	120	220	320	NaN	520	0.0104186739772558	1	1	NaN	3183840.6012141	NaN	3183841.5845866	3183842.10114383
49	20	0	0	90	36.1581920903955	36.241610738255	12	0.400037903934717	2	5	2	NaN	1	3	0.0455522286888362	0	1	NaN	278	5	26	1	120	220	320	NaN	520	0.0104102743789554	1	1	NaN	3183842.9179587	NaN	3183843.901476	3183844.41803073
49	20	0	0	90	36.1581920903955	36.241610738255	13	0.433374395929277	2	12	5	NaN	2	5	0.0455522286888362	0	1	NaN	279	5	27	1	120	220	320	NaN	520	0.0103908265009522	1	0	NaN	3183845.2349452	NaN	3183846.2183783	3183846.73493017
49	20	0	0	90	36.1581920903955	36.241610738255	14	0.466710887923837	2	2	1	NaN	1	5	0.0455522286888362	0	1	NaN	280	5	28	1	120	220	320	NaN	520	0.0356476265005767	2	0	NaN	3183847.5518756	NaN	3183848.5352693	3183849.05181807
49	20	0	0	90	36.1581920903955	36.241610738255	12	0.400037903934717	2	11	2	NaN	2	3	0.0455522286888362	0	1	NaN	281	5	29	1	120	220	320	NaN	520	0.0214162217453122	2	1	NaN	3183849.9021041	NaN	3183850.8854971	3183851.40204628
49	20	0	0	90	36.1581920903955	36.241610738255	12	0.400037903934717	2	8	2	NaN	2	5	0.0455522286888362	0	1	NaN	282	5	30	1	120	220	320	NaN	520	0.0104411705397069	1	0	NaN	3183852.2355436	NaN	3183853.219067	3183853.73561243
49	20	0	0	90	36.1581920903955	36.241610738255	11	0.366701411940157	2	6	4	NaN	1	4	0.0455522286888362	0	1	NaN	283	5	31	1	120	220	320	NaN	520	0.0104005262255669	1	1	NaN	3183854.5526428	NaN	3183855.535956	3183856.05251187
49	20	0	0	90	36.1581920903955	36.241610738255	8	0.266691935956478	2	5	5	NaN	1	5	0.0455522286888362	0	1	NaN	284	5	32	1	120	220	320	NaN	520	0.181363543495536	1	1	NaN	3183856.8861273	NaN	3183857.8695358	3183858.38607306
49	20	0	0	90	36.1581920903955	36.241610738255	0	0	1	8	3	NaN	2	3	0.0455522286888362	0	1	NaN	285	5	33	1	110	210	310	NaN	510	0.721267774235457	2	1	NaN	3183859.3863899	NaN	3183860.3697712	3183860.88632223
49	20	0	0	90	36.1581920903955	36.241610738255	11	0.366701411940157	2	7	6	NaN	2	3	0.0455522286888362	0	1	NaN	286	5	34	1	120	220	320	NaN	520	0.119516621809453	1	0	NaN	3183862.4200895	NaN	3183863.4033941	3183863.91994368
49	20	0	0	90	36.1581920903955	36.241610738255	17	0.566720363907516	2	4	3	NaN	1	5	0.0455522286888362	0	1	NaN	287	5	35	1	120	220	320	NaN	520	0.0698692221194506	1	1	NaN	3183864.8535946	NaN	3183865.8369556	3183866.35351448
49	20	0	0	90	36.1581920903955	36.241610738255	8	0.266691935956478	2	7	2	NaN	2	4	0.0455522286888362	0	1	NaN	288	5	36	1	120	220	320	NaN	520	0.470324426423758	2	1	NaN	3183867.2371173	NaN	3183868.2205319	3183868.73709407
49	20	0	0	90	36.1581920903955	36.241610738255	14	0.466710887923837	2	12	5	NaN	2	4	0.0455522286888362	0	1	NaN	289	5	37	1	120	220	320	NaN	520	1.21523672621697	2	1	NaN	3183870.0206798	NaN	3183871.0041654	3183871.52069207
49	20	0	0	90	36.1581920903955	36.241610738255	11	0.366701411940157	2	3	4	NaN	1	5	0.0455522286888362	0	1	NaN	290	5	38	1	120	220	320	NaN	520	0.121130778454244	2	0	NaN	3183873.5544362	NaN	3183874.5378212	3183875.05437602
49	20	0	0	90	36.1581920903955	36.241610738255	13	0.433374395929277	2	1	1	NaN	1	3	0.0455522286888362	0	1	NaN	291	5	39	1	120	220	320	NaN	520	0.0104056266136467	1	1	NaN	3183876.3045713	NaN	3183877.2880844	3183877.80465457
49	20	0	0	90	36.1581920903955	36.241610738255	21	0.700066331885755	2	9	2	NaN	2	4	0.0455522286888362	0	1	NaN	292	5	40	1	120	220	320	NaN	520	0.60591537412256	2	1	NaN	3183878.6216582	NaN	3183879.6049935	3183880.12153903
49	20	0	0	90	36.1581920903955	36.241610738255	17	0.566720363907516	2	10	5	NaN	2	3	0.0455522286888362	0	1	NaN	293	5	41	1	120	220	320	NaN	520	0.185372770298272	2	1	NaN	3183881.5384639	NaN	3183882.5219516	3183883.03849073
49	20	0	0	90	36.1581920903955	36.241610738255	18	0.600056855902076	2	11	2	NaN	2	5	0.0455522286888362	0	1	NaN	294	5	42	1	120	220	320	NaN	520	0.324834878090769	2	1	NaN	3183884.0387935	NaN	3183885.0222045	3183885.53873612
49	20	0	0	90	36.1581920903955	36.241610738255	16	0.533383871912956	2	11	6	NaN	2	4	0.0455522286888362	0	1	NaN	295	5	43	1	120	220	320	NaN	520	0.0104230740107596	2	1	NaN	3183886.6722316	NaN	3183887.6557827	3183888.17232903
49	20	0	0	90	36.1581920903955	36.241610738255	13	0.433374395929277	2	3	4	NaN	1	3	0.0455522286888362	0	1	NaN	296	5	44	1	120	220	320	NaN	520	0.197463022079319	1	1	NaN	3183889.0059432	NaN	3183889.9893474	3183890.50588958
49	20	0	0	90	36.1581920903955	36.241610738255	6	0.200018951967359	2	8	6	NaN	2	4	0.0455522286888362	0	1	NaN	297	5	45	1	120	220	320	NaN	520	0.0104114743880928	2	1	NaN	3183891.5228665	NaN	3183892.5062579	3183893.02281003
49	20	0	0	90	36.1581920903955	36.241610738255	8	0.266691935956478	2	2	1	NaN	1	5	0.0455522286888362	0	1	NaN	298	5	46	1	120	220	320	NaN	520	0.0104242744855583	1	1	NaN	3183893.8397585	NaN	3183894.8231534	3183895.33970493
49	20	0	0	90	36.1581920903955	36.241610738255	19	0.633393347896635	2	3	6	NaN	1	5	0.0455522286888362	0	1	NaN	299	5	47	1	120	220	320	NaN	520	0.0104101742617786	2	0	NaN	3183896.1732305	NaN	3183897.1567223	3183897.67327413
49	20	0	0	90	36.1581920903955	36.241610738255	12	0.400037903934717	2	8	5	NaN	2	5	0.0455522286888362	0	1	NaN	300	5	48	1	120	220	320	NaN	520	0.0731216743588448	1	0	NaN	3183898.4902756	NaN	3183899.4736114	3183899.99015843
49	20	0	0	90	36.1581920903955	36.241610738255	25	0.833412299863994	2	6	5	NaN	1	3	0.0455522286888362	0	1	NaN	301	5	49	1	120	220	320	NaN	520	1.37016167398542	1	1	NaN	3183900.873652	NaN	3183901.8571779	3183902.37372463
49	20	0	0	90	36.1581920903955	36.241610738255	18	0.600056855902076	2	12	6	NaN	2	3	0.0455522286888362	0	1	NaN	302	5	50	1	120	220	320	NaN	520	0.134004374034703	1	0	NaN	3183904.557484	NaN	3183905.5408801	3183906.05742263
49	20	0	0	90	36.1581920903955	36.241610738255	21	0.700066331885755	2	5	1	NaN	1	5	0.0455522286888362	0	1	NaN	303	5	51	1	120	220	320	NaN	520	0.0104075740091503	2	0	NaN	3183907.0077132	NaN	3183907.9910949	3183908.50767323
49	20	0	0	90	36.1581920903955	36.241610738255	24	0.800075807869434	2	3	4	NaN	1	3	0.0455522286888362	0	1	NaN	304	5	52	1	120	220	320	NaN	520	0.0104103744961321	2	0	NaN	3183909.3246182	NaN	3183910.3080256	3183910.82455643
49	20	0	0	90	36.1581920903955	36.241610738255	19	0.633393347896635	2	5	2	NaN	1	3	0.0455522286888362	0	1	NaN	305	5	53	1	120	220	320	NaN	520	0.0104087740182877	1	1	NaN	3183911.6580325	NaN	3183912.6415639	3183913.15812373
49	20	0	0	90	36.1581920903955	36.241610738255	6	0.200018951967359	2	5	5	NaN	1	4	0.0455522286888362	0	1	NaN	306	5	54	1	120	220	320	NaN	520	0.0759477741084993	1	1	NaN	3183913.9917365	NaN	3183914.975136	3183915.49168423
49	20	0	0	90	36.1581920903955	36.241610738255	20	0.666729839891195	2	9	4	NaN	2	5	0.0455522286888362	0	1	NaN	307	5	55	1	120	220	320	NaN	520	0.0362343220040202	1	0	NaN	3183916.375307	NaN	3183917.358702	3183917.87525148
49	20	0	0	90	36.1581920903955	36.241610738255	8	0.266691935956478	2	11	1	NaN	2	5	0.0455522286888362	0	1	NaN	308	5	56	1	120	220	320	NaN	520	0.0104085742495954	2	1	NaN	3183918.7255344	NaN	3183919.7089204	3183920.22547893
49	20	0	0	90	36.1581920903955	36.241610738255	22	0.733402823880315	2	12	2	NaN	2	5	0.0455522286888362	0	1	NaN	309	5	57	1	120	220	320	NaN	520	0.10500847408548	2	1	NaN	3183921.0423237	NaN	3183922.0258668	3183922.54238353
49	20	0	0	90	36.1581920903955	36.241610738255	23	0.766739315874875	2	8	3	NaN	2	5	0.0455522286888362	0	1	NaN	310	5	58	1	120	220	320	NaN	520	0.0103973262012005	2	1	NaN	3183923.4593447	NaN	3183924.4427261	3183924.95928837
49	20	0	0	90	36.1581920903955	36.241610738255	15	0.500047379918396	2	10	5	NaN	2	4	0.0455522286888362	0	1	NaN	311	5	59	1	120	220	320	NaN	520	0.0103770783171058	1	0	NaN	3183925.7760536	NaN	3183926.7596233	3183927.27617932
49	20	0	0	90	36.1581920903955	36.241610738255	0	0	1	1	5	NaN	1	5	0.0455522286888362	0	1	NaN	312	5	60	1	110	210	310	NaN	510	0.0784851745702326	2	0	NaN	3183928.0931421	NaN	3183929.0765303	3183929.59306653
49	20	0	0	90	36.1581920903955	36.241610738255	23	0.766739315874875	2	3	3	NaN	1	3	0.0455522286888362	0	1	NaN	313	5	61	1	120	220	320	NaN	520	0.0104110739193857	1	1	NaN	3183930.493272	NaN	3183931.4767543	3183931.99330683
49	20	0	0	90	36.1581920903955	36.241610738255	23	0.766739315874875	2	12	5	NaN	2	5	0.0455522286888362	0	1	NaN	314	5	62	1	120	220	320	NaN	520	0.010440070182085	2	1	NaN	3183932.8269237	NaN	3183933.8103089	3183934.32686043
49	20	0	0	90	36.1581920903955	36.241610738255	16	0.533383871912956	2	5	2	NaN	1	3	0.0455522286888362	0	1	NaN	315	5	63	1	120	220	320	NaN	520	0.0104300221428275	2	0	NaN	3183935.1604922	NaN	3183936.1438804	3183936.66043598
49	20	0	0	90	36.1581920903955	36.241610738255	25	0.833412299863994	2	8	1	NaN	2	4	0.0455522286888362	0	1	NaN	316	6	1	1	120	220	320	NaN	520	1.57528332620859	2	1	NaN	3183960.3962919	NaN	3183961.3796843	3183961.89625087
49	20	0	0	90	36.1581920903955	36.241610738255	7	0.233355443961918	2	11	5	NaN	2	4	0.0455522286888362	0	1	NaN	317	6	2	1	120	220	320	NaN	520	0.242984321899712	2	1	NaN	3183964.2966664	NaN	3183965.2800722	3183965.79662028
49	20	0	0	90	36.1581920903955	36.241610738255	14	0.466710887923837	2	3	5	NaN	1	5	0.0455522286888362	0	1	NaN	318	6	3	1	120	220	320	NaN	520	0.010411674156785	1	1	NaN	3183966.8467993	NaN	3183967.8303289	3183968.34688063
49	20	0	0	90	36.1581920903955	36.241610738255	14	0.466710887923837	2	8	5	NaN	2	3	0.0455522286888362	0	1	NaN	319	6	4	1	120	220	320	NaN	520	1.15977397421375	2	1	NaN	3183969.1638273	NaN	3183970.1472111	3183970.66377043
49	20	0	0	90	36.1581920903955	36.241610738255	15	0.500047379918396	2	4	6	NaN	1	5	0.0455522286888362	0	1	NaN	320	6	5	1	120	220	320	NaN	520	0.010401526466012	1	1	NaN	3183972.6308309	NaN	3183973.6142337	3183974.13077327
49	20	0	0	90	36.1581920903955	36.241610738255	9	0.300028427951038	2	9	3	NaN	2	5	0.0455522286888362	0	1	NaN	321	6	6	1	120	220	320	NaN	520	0.37583522638306	1	0	NaN	3183974.9477392	NaN	3183975.9311177	3183976.44767687
49	20	0	0	90	36.1581920903955	36.241610738255	15	0.500047379918396	2	6	6	NaN	1	3	0.0455522286888362	0	1	NaN	322	6	7	1	120	220	320	NaN	520	0.0104325222782791	1	1	NaN	3183977.6313201	NaN	3183978.6147177	3183979.13126208
49	20	0	0	90	36.1581920903955	36.241610738255	12	0.400037903934717	2	10	5	NaN	2	5	0.0455522286888362	0	1	NaN	323	6	8	1	120	220	320	NaN	520	0.0104252742603421	2	1	NaN	3183979.9481843	NaN	3183980.931609	3183981.44816213
49	20	0	0	90	36.1581920903955	36.241610738255	12	0.400037903934717	2	7	5	NaN	2	5	0.0455522286888362	0	1	NaN	324	6	9	1	120	220	320	NaN	520	0.0104088741354644	1	0	NaN	3183982.2651145	NaN	3183983.248504	3183983.76506143
49	20	0	0	90	36.1581920903955	36.241610738255	24	0.800075807869434	2	4	3	NaN	1	3	0.0455522286888362	0	1	NaN	325	6	10	1	120	220	320	NaN	520	0.0930043263360858	1	1	NaN	3183984.5986844	NaN	3183985.5820721	3183986.09862587
49	20	0	0	90	36.1581920903955	36.241610738255	16	0.533383871912956	2	8	1	NaN	2	3	0.0455522286888362	0	1	NaN	326	6	11	1	120	220	320	NaN	520	0.236545974388719	1	0	NaN	3183987.0156029	NaN	3183987.9989721	3183988.51553253
49	20	0	0	90	36.1581920903955	36.241610738255	20	0.666729839891195	2	6	4	NaN	1	5	0.0455522286888362	0	1	NaN	327	6	12	1	120	220	320	NaN	520	0.0105574219487607	1	1	NaN	3183989.5658213	NaN	3183990.5492186	3183991.06578848
49	20	0	0	90	36.1581920903955	36.241610738255	10	0.333364919945598	2	3	5	NaN	1	3	0.0455522286888362	0	1	NaN	328	6	13	1	120	220	320	NaN	520	0.0104910260997713	1	1	NaN	3183991.8994089	NaN	3183992.8827754	3183993.39935367
49	20	0	0	90	36.1581920903955	36.241610738255	6	0.200018951967359	2	1	5	NaN	1	3	0.0455522286888362	0	1	NaN	329	6	14	1	120	220	320	NaN	520	0.0103910267353058	1	1	NaN	3183994.2328359	NaN	3183995.2163578	3183995.73289467
49	20	0	0	90	36.1581920903955	36.241610738255	16	0.533383871912956	2	4	4	NaN	1	4	0.0455522286888362	0	1	NaN	330	6	15	1	120	220	320	NaN	520	1.69371767388657	1	1	NaN	3183996.5498596	NaN	3183997.5331388	3183998.04979223
49	20	0	0	90	36.1581920903955	36.241610738255	16	0.533383871912956	2	11	5	NaN	2	3	0.0455522286888362	0	1	NaN	331	6	16	1	120	220	320	NaN	520	0.0103954263031483	1	0	NaN	3184000.550105	NaN	3184001.5336405	3184002.05018377
49	20	0	0	90	36.1581920903955	36.241610738255	13	0.433374395929277	2	5	3	NaN	1	4	0.0455522286888362	0	1	NaN	332	6	17	1	120	220	320	NaN	520	0.0104263219982386	1	1	NaN	3184002.8670321	NaN	3184003.8505197	3184004.36707918
49	20	0	0	90	36.1581920903955	36.241610738255	9	0.300028427951038	2	7	5	NaN	2	5	0.0455522286888362	0	1	NaN	333	6	18	1	120	220	320	NaN	520	0.10783697059378	2	1	NaN	3184005.1840623	NaN	3184006.1674104	3184006.68396893
49	20	0	0	90	36.1581920903955	36.241610738255	23	0.766739315874875	2	1	1	NaN	1	5	0.0455522286888362	0	1	NaN	334	6	19	1	120	220	320	NaN	520	1.53112362185493	1	1	NaN	3184007.6009393	NaN	3184008.5843322	3184009.10087698
49	20	0	0	90	36.1581920903955	36.241610738255	21	0.700066331885755	2	1	3	NaN	1	3	0.0455522286888362	0	1	NaN	335	6	20	1	120	220	320	NaN	520	0.010299195535481	2	0	NaN	3184011.4346321	NaN	3184012.4181074	3184012.9346022
49	20	0	0	90	36.1581920903955	36.241610738255	13	0.433374395929277	2	6	2	NaN	1	4	0.0455522286888362	0	1	NaN	336	6	21	1	120	220	320	NaN	520	0.0104098743759096	1	1	NaN	3184013.7515507	NaN	3184014.7349367	3184015.25148243
49	20	0	0	90	36.1581920903955	36.241610738255	13	0.433374395929277	2	9	3	NaN	2	3	0.0455522286888362	0	1	NaN	337	6	22	1	120	220	320	NaN	520	0.0103932260535657	2	1	NaN	3184016.0850831	NaN	3184017.0685004	3184017.58504327
49	20	0	0	90	36.1581920903955	36.241610738255	22	0.733402823880315	2	4	1	NaN	1	3	0.0455522286888362	0	1	NaN	338	6	23	1	120	220	320	NaN	520	0.0104220737703145	1	1	NaN	3184018.418657	NaN	3184019.4020569	3184019.91860833
49	20	0	0	90	36.1581920903955	36.241610738255	22	0.733402823880315	2	4	2	NaN	1	4	0.0455522286888362	0	1	NaN	339	6	24	1	120	220	320	NaN	520	0.0104371220804751	1	1	NaN	3184020.7355599	NaN	3184021.7189589	3184022.23549828
49	20	0	0	90	36.1581920903955	36.241610738255	25	0.833412299863994	2	7	2	NaN	2	5	0.0455522286888362	0	1	NaN	340	6	25	1	120	220	320	NaN	520	0.0104078743606806	2	1	NaN	3184023.0691193	NaN	3184024.0524987	3184024.56906473
49	20	0	0	90	36.1581920903955	36.241610738255	8	0.266691935956478	2	2	2	NaN	1	3	0.0455522286888362	0	1	NaN	341	6	26	1	120	220	320	NaN	520	0.0817213263362646	1	1	NaN	3184025.3860182	NaN	3184026.369411	3184026.88596267
49	20	0	0	90	36.1581920903955	36.241610738255	13	0.433374395929277	2	2	3	NaN	1	4	0.0455522286888362	0	1	NaN	342	6	27	1	120	220	320	NaN	520	0.0415406739339232	1	1	NaN	3184027.7862481	NaN	3184028.7695643	3184029.28619793
49	20	0	0	90	36.1581920903955	36.241610738255	0	0	1	4	3	NaN	1	3	0.0455522286888362	0	1	NaN	343	6	28	1	110	210	310	NaN	510	0.0104246223345399	1	1	NaN	3184030.136316	NaN	3184031.1198792	3184031.63643618
49	20	0	0	90	36.1581920903955	36.241610738255	21	0.700066331885755	2	10	5	NaN	2	3	0.0455522286888362	0	1	NaN	344	6	29	1	120	220	320	NaN	520	0.0303926742635667	1	0	NaN	3184032.4533745	NaN	3184033.4367765	3184033.95332373
49	20	0	0	90	36.1581920903955	36.241610738255	11	0.366701411940157	2	12	6	NaN	2	4	0.0455522286888362	0	1	NaN	345	6	30	1	120	220	320	NaN	520	0.0480450741015375	1	0	NaN	3184034.8036067	NaN	3184035.7870033	3184036.30355013
49	20	0	0	90	36.1581920903955	36.241610738255	24	0.800075807869434	2	7	4	NaN	2	4	0.0455522286888362	0	1	NaN	346	6	31	1	120	220	320	NaN	520	0.377162574324757	2	1	NaN	3184037.1705011	NaN	3184038.1539038	3184038.67044923
49	20	0	0	90	36.1581920903955	36.241610738255	22	0.733402823880315	2	9	5	NaN	2	4	0.0455522286888362	0	1	NaN	347	6	32	1	120	220	320	NaN	520	0.0104114743880928	1	0	NaN	3184039.8707741	NaN	3184040.8541647	3184041.37071343
49	20	0	0	90	36.1581920903955	36.241610738255	17	0.566720363907516	2	1	4	NaN	1	5	0.0455522286888362	0	1	NaN	348	6	33	1	120	220	320	NaN	520	1.92041447432712	1	1	NaN	3184042.1876089	NaN	3184043.1710535	3184043.68761473
49	20	0	0	90	36.1581920903955	36.241610738255	21	0.700066331885755	2	11	2	NaN	2	5	0.0455522286888362	0	1	NaN	349	6	34	1	120	220	320	NaN	520	0.0104245743714273	1	0	NaN	3184046.4214721	NaN	3184047.4048084	3184047.92135893
49	20	0	0	90	36.1581920903955	36.241610738255	16	0.533383871912956	2	2	3	NaN	1	4	0.0455522286888362	0	1	NaN	350	6	35	1	120	220	320	NaN	520	0.0104115740396082	2	0	NaN	3184048.7383079	NaN	3184049.7217039	3184050.23825713
49	20	0	0	90	36.1581920903955	36.241610738255	25	0.833412299863994	2	9	1	NaN	2	3	0.0455522286888362	0	1	NaN	351	6	36	1	120	220	320	NaN	520	0.0103675303980708	2	1	NaN	3184051.0552074	NaN	3184052.0386142	3184052.55516017
49	20	0	0	90	36.1581920903955	36.241610738255	12	0.400037903934717	2	4	2	NaN	1	4	0.0455522286888362	0	1	NaN	352	6	37	1	120	220	320	NaN	520	0.263332474511117	1	1	NaN	3184053.3886223	NaN	3184054.3721691	3184054.88871353
49	20	0	0	90	36.1581920903955	36.241610738255	25	0.833412299863994	2	4	1	NaN	1	3	0.0455522286888362	0	1	NaN	353	6	38	1	120	220	320	NaN	520	0.720353426411748	1	1	NaN	3184055.9556856	NaN	3184056.939067	3184057.45563377
49	20	0	0	90	36.1581920903955	36.241610738255	22	0.733402823880315	2	5	5	NaN	1	4	0.0455522286888362	0	1	NaN	354	6	39	1	120	220	320	NaN	520	0.0104303220286965	1	1	NaN	3184058.9893059	NaN	3184059.9727035	3184060.48925628
49	20	0	0	90	36.1581920903955	36.241610738255	0	0	1	1	6	NaN	1	4	0.0455522286888362	0	1	NaN	355	6	40	1	110	210	310	NaN	510	0.208999474067241	2	0	NaN	3184061.3227441	NaN	3184062.306278	3184062.82282503
49	20	0	0	90	36.1581920903955	36.241610738255	24	0.800075807869434	2	2	2	NaN	1	3	0.0455522286888362	0	1	NaN	356	6	41	1	120	220	320	NaN	520	0.0104319741949439	1	1	NaN	3184063.8564655	NaN	3184064.8398175	3184065.35640203
49	20	0	0	90	36.1581920903955	36.241610738255	7	0.233355443961918	2	9	1	NaN	2	5	0.0455522286888362	0	1	NaN	357	6	42	1	120	220	320	NaN	520	0.0104149742983282	2	1	NaN	3184066.1733483	NaN	3184067.1567581	3184067.67329503
49	20	0	0	90	36.1581920903955	36.241610738255	14	0.466710887923837	2	12	3	NaN	2	4	0.0455522286888362	0	1	NaN	358	6	43	1	120	220	320	NaN	520	0.865933673921973	2	1	NaN	3184068.4901163	NaN	3184069.4736561	3184069.99019083
49	20	0	0	90	36.1581920903955	36.241610738255	6	0.200018951967359	2	9	6	NaN	2	4	0.0455522286888362	0	1	NaN	359	6	44	1	120	220	320	NaN	520	0.010422573890537	1	0	NaN	3184071.6738977	NaN	3184072.6573061	3184073.17383533
49	20	0	0	90	36.1581920903955	36.241610738255	9	0.300028427951038	2	1	5	NaN	1	3	0.0455522286888362	0	1	NaN	360	6	45	1	120	220	320	NaN	520	0.444585774093866	1	1	NaN	3184074.0073354	NaN	3184074.9908457	3184075.50740593
49	20	0	0	90	36.1581920903955	36.241610738255	24	0.800075807869434	2	11	4	NaN	2	5	0.0455522286888362	0	1	NaN	361	6	46	1	120	220	320	NaN	520	0.0104225743561983	2	1	NaN	3184076.7743992	NaN	3184077.757787	3184078.27433973
49	20	0	0	90	36.1581920903955	36.241610738255	15	0.500047379918396	2	3	5	NaN	1	5	0.0455522286888362	0	1	NaN	362	6	47	1	120	220	320	NaN	520	0.0104060745798051	1	1	NaN	3184079.0913135	NaN	3184080.0746971	3184080.59124483
49	20	0	0	90	36.1581920903955	36.241610738255	0	0	1	2	1	NaN	1	5	0.0455522286888362	0	1	NaN	363	6	48	1	110	210	310	NaN	510	0.0104106743820012	1	1	NaN	3184081.4082258	NaN	3184082.3915849	3184082.90812833
49	20	0	0	90	36.1581920903955	36.241610738255	6	0.200018951967359	2	6	6	NaN	1	4	0.0455522286888362	0	1	NaN	364	6	49	1	120	220	320	NaN	520	0.0104100741446018	1	1	NaN	3184083.7250167	NaN	3184084.7084704	3184085.22502413
49	20	0	0	90	36.1581920903955	36.241610738255	17	0.566720363907516	2	6	4	NaN	1	3	0.0455522286888362	0	1	NaN	365	6	50	1	120	220	320	NaN	520	0.258319973945618	1	1	NaN	3184086.0419533	NaN	3184087.0253725	3184087.54191743
49	20	0	0	90	36.1581920903955	36.241610738255	9	0.300028427951038	2	12	6	NaN	2	4	0.0455522286888362	0	1	NaN	366	6	51	1	120	220	320	NaN	520	0.0103827784769237	2	1	NaN	3184088.6088936	NaN	3184089.592289	3184090.10884742
49	20	0	0	90	36.1581920903955	36.241610738255	18	0.600056855902076	2	5	3	NaN	1	3	0.0455522286888362	0	1	NaN	367	6	52	1	120	220	320	NaN	520	0.0300549743697047	1	1	NaN	3184090.9257606	NaN	3184091.9091836	3184092.42573103
49	20	0	0	90	36.1581920903955	36.241610738255	20	0.666729839891195	2	2	1	NaN	1	3	0.0455522286888362	0	1	NaN	368	6	53	1	120	220	320	NaN	520	1.67229762673378	2	0	NaN	3184093.6593757	NaN	3184094.6427845	3184095.15933857
49	20	0	0	90	36.1581920903955	36.241610738255	9	0.300028427951038	2	11	1	NaN	2	5	0.0455522286888362	0	1	NaN	369	6	54	1	120	220	320	NaN	520	0.0104102739132941	2	1	NaN	3184097.6431169	NaN	3184098.6265366	3184099.14305943
49	20	0	0	90	36.1581920903955	36.241610738255	17	0.566720363907516	2	12	1	NaN	2	4	0.0455522286888362	0	1	NaN	370	6	55	1	120	220	320	NaN	520	0.532228126656264	1	0	NaN	3184099.9600487	NaN	3184100.9434034	3184101.45995597
49	20	0	0	90	36.1581920903955	36.241610738255	7	0.233355443961918	2	9	4	NaN	2	5	0.0455522286888362	0	1	NaN	371	6	56	1	120	220	320	NaN	520	0.313515821937472	1	0	NaN	3184102.8101619	NaN	3184103.7936796	3184104.31022788
49	20	0	0	90	36.1581920903955	36.241610738255	19	0.633393347896635	2	10	6	NaN	2	5	0.0455522286888362	0	1	NaN	372	6	57	1	120	220	320	NaN	520	0.01040507433936	2	1	NaN	3184105.4438803	NaN	3184106.4272734	3184106.94382323
49	20	0	0	90	36.1581920903955	36.241610738255	19	0.633393347896635	2	4	3	NaN	1	5	0.0455522286888362	0	1	NaN	373	6	58	1	120	220	320	NaN	520	0.20278377411887	1	1	NaN	3184107.7773174	NaN	3184108.7608346	3184109.27739513
49	20	0	0	90	36.1581920903955	36.241610738255	14	0.466710887923837	2	4	1	NaN	1	4	0.0455522286888362	0	1	NaN	374	6	59	1	120	220	320	NaN	520	0.213467318098992	1	1	NaN	3184110.2943524	NaN	3184111.2777546	3184111.79429358
49	20	0	0	90	36.1581920903955	36.241610738255	22	0.733402823880315	2	7	3	NaN	2	5	0.0455522286888362	0	1	NaN	375	6	60	1	120	220	320	NaN	520	0.0104092741385102	1	0	NaN	3184112.8112629	NaN	3184113.7946658	3184114.31121423
49	20	0	0	90	36.1581920903955	36.241610738255	21	0.700066331885755	2	11	5	NaN	2	3	0.0455522286888362	0	1	NaN	376	6	61	1	120	220	320	NaN	520	0.0150551260448992	1	0	NaN	3184115.2448365	NaN	3184116.2281341	3184116.74479157
49	20	0	0	90	36.1581920903955	36.241610738255	24	0.800075807869434	2	5	5	NaN	1	3	0.0455522286888362	0	1	NaN	377	6	62	1	120	220	320	NaN	520	0.0104102743789554	1	1	NaN	3184117.5784177	NaN	3184118.5617219	3184119.07834763
49	20	0	0	90	36.1581920903955	36.241610738255	8	0.266691935956478	2	3	3	NaN	1	3	0.0455522286888362	0	1	NaN	378	6	63	1	120	220	320	NaN	520	0.0104534742422402	1	1	NaN	3184119.8951862	NaN	3184120.8785852	3184121.39524453
49	20	0	0	90	36.1581920903955	36.241610738255	14	0.466710887923837	2	4	1	NaN	1	3	0.0455522286888362	0	1	NaN	379	7	1	1	120	220	320	NaN	520	0.0104114739224315	1	1	NaN	3184144.6143853	NaN	3184145.5977881	3184146.11433683
49	20	0	0	90	36.1581920903955	36.241610738255	20	0.666729839891195	2	4	6	NaN	1	5	0.0455522286888362	0	1	NaN	380	7	2	1	120	220	320	NaN	520	0.0485525741241872	1	1	NaN	3184146.9311528	NaN	3184147.9146139	3184148.43122993
49	20	0	0	90	36.1581920903955	36.241610738255	17	0.566720363907516	2	12	1	NaN	2	5	0.0455522286888362	0	1	NaN	381	7	3	1	120	220	320	NaN	520	0.0104117742739618	1	0	NaN	3184149.2981852	NaN	3184150.2815947	3184150.79814123
49	20	0	0	90	36.1581920903955	36.241610738255	25	0.833412299863994	2	8	2	NaN	2	4	0.0455522286888362	0	1	NaN	382	7	4	1	120	220	320	NaN	520	0.010411674156785	1	0	NaN	3184151.6151012	NaN	3184152.5984787	3184153.11502923
49	20	0	0	90	36.1581920903955	36.241610738255	6	0.200018951967359	2	11	2	NaN	2	4	0.0455522286888362	0	1	NaN	383	7	5	1	120	220	320	NaN	520	0.479341226164252	2	1	NaN	3184153.9486376	NaN	3184154.9320431	3184155.44859437
49	20	0	0	90	36.1581920903955	36.241610738255	19	0.633393347896635	2	11	2	NaN	2	3	0.0455522286888362	0	1	NaN	384	7	6	1	120	220	320	NaN	520	0.010409374255687	2	1	NaN	3184156.7489225	NaN	3184157.7323172	3184158.24886163
49	20	0	0	90	36.1581920903955	36.241610738255	9	0.300028427951038	2	8	4	NaN	2	5	0.0455522286888362	0	1	NaN	385	7	7	1	120	220	320	NaN	520	0.0104071740061045	1	0	NaN	3184159.0658935	NaN	3184160.0491999	3184160.56576213
49	20	0	0	90	36.1581920903955	36.241610738255	18	0.600056855902076	2	8	1	NaN	2	4	0.0455522286888362	0	1	NaN	386	7	8	1	120	220	320	NaN	520	0.0104202744551003	1	0	NaN	3184161.382702	NaN	3184162.3661179	3184162.88265013
49	20	0	0	90	36.1581920903955	36.241610738255	24	0.800075807869434	2	10	6	NaN	2	5	0.0455522286888362	0	1	NaN	387	7	9	1	120	220	320	NaN	520	0.0103892264887691	1	0	NaN	3184163.6995971	NaN	3184164.6830012	3184165.19954407
49	20	0	0	90	36.1581920903955	36.241610738255	13	0.433374395929277	2	8	3	NaN	2	5	0.0455522286888362	0	1	NaN	388	7	10	1	120	220	320	NaN	520	0.0104252216406167	1	0	NaN	3184166.0165093	NaN	3184166.9999	3184167.51643968
49	20	0	0	90	36.1581920903955	36.241610738255	19	0.633393347896635	2	9	1	NaN	2	3	0.0455522286888362	0	1	NaN	389	7	11	1	120	220	320	NaN	520	0.0545404739677906	2	1	NaN	3184168.3332611	NaN	3184169.3167706	3184169.83334003
49	20	0	0	90	36.1581920903955	36.241610738255	21	0.700066331885755	2	9	5	NaN	2	3	0.0455522286888362	0	1	NaN	390	7	12	1	120	220	320	NaN	520	0.0557046220637858	2	1	NaN	3184171.1001758	NaN	3184172.0836249	3184172.60027658
49	20	0	0	90	36.1581920903955	36.241610738255	17	0.566720363907516	2	11	6	NaN	2	5	0.0455522286888362	0	1	NaN	391	7	13	1	120	220	320	NaN	520	0.0408140742219985	1	0	NaN	3184173.4672276	NaN	3184174.4506252	3184174.96717673
49	20	0	0	90	36.1581920903955	36.241610738255	0	0	1	12	6	NaN	2	3	0.0455522286888362	0	1	NaN	392	7	14	1	110	210	310	NaN	510	0.0212877742014825	1	0	NaN	3184175.9508032	NaN	3184176.9342027	3184177.45074843
49	20	0	0	90	36.1581920903955	36.241610738255	7	0.233355443961918	2	5	3	NaN	1	4	0.0455522286888362	0	1	NaN	393	7	15	1	120	220	320	NaN	520	0.0104046743363142	1	1	NaN	3184178.2843619	NaN	3184179.267762	3184179.78431123
49	20	0	0	90	36.1581920903955	36.241610738255	13	0.433374395929277	2	8	4	NaN	2	5	0.0455522286888362	0	1	NaN	394	7	16	1	120	220	320	NaN	520	0.211029174271971	1	0	NaN	3184180.6012532	NaN	3184181.5846581	3184182.10121363
49	20	0	0	90	36.1581920903955	36.241610738255	24	0.800075807869434	2	9	4	NaN	2	3	0.0455522286888362	0	1	NaN	395	7	17	1	120	220	320	NaN	520	0.0104077742435038	2	1	NaN	3184183.1182628	NaN	3184184.1015731	3184184.61812633
49	20	0	0	90	36.1581920903955	36.241610738255	7	0.233355443961918	2	8	5	NaN	2	5	0.0455522286888362	0	1	NaN	396	7	18	1	120	220	320	NaN	520	0.010419674217701	1	0	NaN	3184185.4350912	NaN	3184186.4184501	3184186.93502283
49	20	0	0	90	36.1581920903955	36.241610738255	25	0.833412299863994	2	12	5	NaN	2	5	0.0455522286888362	0	1	NaN	397	7	19	1	120	220	320	NaN	520	0.0104104741476476	2	1	NaN	3184188.101979	NaN	3184189.085396	3184189.60195063
49	20	0	0	90	36.1581920903955	36.241610738255	12	0.400037903934717	2	9	4	NaN	2	5	0.0455522286888362	0	1	NaN	398	7	20	1	120	220	320	NaN	520	0.010419674217701	2	1	NaN	3184190.785572	NaN	3184191.7689949	3184192.28554103
49	20	0	0	90	36.1581920903955	36.241610738255	24	0.800075807869434	2	9	1	NaN	2	4	0.0455522286888362	0	1	NaN	399	7	21	1	120	220	320	NaN	520	0.010409674141556	2	1	NaN	3184193.102348	NaN	3184194.0859394	3184194.60243643
49	20	0	0	90	36.1581920903955	36.241610738255	17	0.566720363907516	2	8	4	NaN	2	5	0.0455522286888362	0	1	NaN	400	7	22	1	120	220	320	NaN	520	0.0104111740365624	1	0	NaN	3184195.4194937	NaN	3184196.4027759	3184196.91932683
49	20	0	0	90	36.1581920903955	36.241610738255	19	0.633393347896635	2	11	1	NaN	2	3	0.0455522286888362	0	1	NaN	401	7	23	1	120	220	320	NaN	520	0.010426573920995	2	1	NaN	3184197.7529641	NaN	3184198.7363617	3184199.25289293
49	20	0	0	90	36.1581920903955	36.241610738255	17	0.566720363907516	2	2	3	NaN	1	4	0.0455522286888362	0	1	NaN	402	7	24	1	120	220	320	NaN	520	0.0382734262384474	1	1	NaN	3184200.0698431	NaN	3184201.0532494	3184201.56978577
49	20	0	0	90	36.1581920903955	36.241610738255	13	0.433374395929277	2	7	1	NaN	2	3	0.0455522286888362	0	1	NaN	403	7	25	1	120	220	320	NaN	520	0.095841022208333	2	1	NaN	3184202.4200673	NaN	3184203.4034821	3184203.92001458
49	20	0	0	90	36.1581920903955	36.241610738255	17	0.566720363907516	2	3	3	NaN	1	3	0.0455522286888362	0	1	NaN	404	7	26	1	120	220	320	NaN	520	0.0230221739038825	2	0	NaN	3184204.8369862	NaN	3184205.8203758	3184206.33692933
49	20	0	0	90	36.1581920903955	36.241610738255	23	0.766739315874875	2	10	1	NaN	2	3	0.0455522286888362	0	1	NaN	405	7	27	1	120	220	320	NaN	520	0.010438522323966	2	1	NaN	3184207.170539	NaN	3184208.1539267	3184208.67048258
49	20	0	0	90	36.1581920903955	36.241610738255	9	0.300028427951038	2	2	2	NaN	1	4	0.0455522286888362	0	1	NaN	406	7	28	1	120	220	320	NaN	520	0.0103942262940109	1	1	NaN	3184209.4875191	NaN	3184210.4708349	3184210.98738147
49	20	0	0	90	36.1581920903955	36.241610738255	18	0.600056855902076	2	12	1	NaN	2	5	0.0455522286888362	0	1	NaN	407	7	29	1	120	220	320	NaN	520	0.0104118743911386	1	0	NaN	3184211.8043254	NaN	3184212.7876247	3184213.30428103
49	20	0	0	90	36.1581920903955	36.241610738255	7	0.233355443961918	2	8	1	NaN	2	4	0.0455522286888362	0	1	NaN	408	7	30	1	120	220	320	NaN	520	0.0103010390885174	2	1	NaN	3184214.1378873	NaN	3184215.121274	3184215.63784636
49	20	0	0	90	36.1581920903955	36.241610738255	23	0.766739315874875	2	4	1	NaN	1	5	0.0455522286888362	0	1	NaN	409	7	31	1	120	220	320	NaN	520	0.0104194744490087	1	1	NaN	3184216.4881344	NaN	3184217.4715153	3184217.98807173
49	20	0	0	90	36.1581920903955	36.241610738255	21	0.700066331885755	2	7	6	NaN	2	5	0.0455522286888362	0	1	NaN	410	7	32	1	120	220	320	NaN	520	0.0104025742039084	1	0	NaN	3184218.8050204	NaN	3184219.7884264	3184220.30496253
49	20	0	0	90	36.1581920903955	36.241610738255	23	0.766739315874875	2	7	2	NaN	2	5	0.0455522286888362	0	1	NaN	411	7	33	1	120	220	320	NaN	520	0.0104248742572963	1	0	NaN	3184221.1385692	NaN	3184222.1219673	3184222.63853113
49	20	0	0	90	36.1581920903955	36.241610738255	16	0.533383871912956	2	12	2	NaN	2	5	0.0455522286888362	0	1	NaN	412	7	34	1	120	220	320	NaN	520	0.156360730528831	1	0	NaN	3184223.4553488	NaN	3184224.4388714	3184224.95541797
49	20	0	0	90	36.1581920903955	36.241610738255	9	0.300028427951038	2	3	2	NaN	1	3	0.0455522286888362	0	1	NaN	413	7	35	1	120	220	320	NaN	520	0.0817157221026719	1	1	NaN	3184225.9223953	NaN	3184226.9057587	3184227.42232818
49	20	0	0	90	36.1581920903955	36.241610738255	0	0	1	5	1	NaN	1	5	0.0455522286888362	0	1	NaN	414	7	36	1	110	210	310	NaN	510	0.225758026354015	2	0	NaN	3184228.3226243	NaN	3184229.306009	3184229.82256867
49	20	0	0	90	36.1581920903955	36.241610738255	9	0.300028427951038	2	12	3	NaN	2	4	0.0455522286888362	0	1	NaN	415	7	37	1	120	220	320	NaN	520	0.0104115740396082	2	1	NaN	3184230.8562099	NaN	3184231.8395994	3184232.35614233
49	20	0	0	90	36.1581920903955	36.241610738255	21	0.700066331885755	2	7	1	NaN	2	4	0.0455522286888362	0	1	NaN	416	7	38	1	120	220	320	NaN	520	0.846583826467395	2	1	NaN	3184233.1896822	NaN	3184234.1731989	3184234.68970927
49	20	0	0	90	36.1581920903955	36.241610738255	18	0.600056855902076	2	6	2	NaN	1	5	0.0455522286888362	0	1	NaN	417	7	39	1	120	220	320	NaN	520	0.0102677433751523	1	1	NaN	3184236.3566039	NaN	3184237.3401399	3184237.85669126
49	20	0	0	90	36.1581920903955	36.241610738255	15	0.500047379918396	2	4	5	NaN	1	4	0.0455522286888362	0	1	NaN	418	7	40	1	120	220	320	NaN	520	0.649632674176246	1	1	NaN	3184238.6903041	NaN	3184239.6735882	3184240.19025703
49	20	0	0	90	36.1581920903955	36.241610738255	6	0.200018951967359	2	2	5	NaN	1	3	0.0455522286888362	0	1	NaN	419	7	41	1	120	220	320	NaN	520	0.0104099740274251	1	1	NaN	3184241.657294	NaN	3184242.6406633	3184243.15720913
49	20	0	0	90	36.1581920903955	36.241610738255	6	0.200018951967359	2	12	2	NaN	2	3	0.0455522286888362	0	1	NaN	420	7	42	1	120	220	320	NaN	520	0.0104380222037435	2	1	NaN	3184243.9907122	NaN	3184244.9742175	3184245.49077288
49	20	0	0	90	36.1581920903955	36.241610738255	11	0.366701411940157	2	8	4	NaN	2	4	0.0455522286888362	0	1	NaN	421	7	43	1	120	220	320	NaN	520	0.240390473976731	1	0	NaN	3184246.3077407	NaN	3184247.291114	3184247.80767183
49	20	0	0	90	36.1581920903955	36.241610738255	19	0.633393347896635	2	2	1	NaN	1	4	0.0455522286888362	0	1	NaN	422	7	44	1	120	220	320	NaN	520	0.0104099740274251	1	1	NaN	3184248.8579433	NaN	3184249.8413686	3184250.35791573
49	20	0	0	90	36.1581920903955	36.241610738255	11	0.366701411940157	2	8	1	NaN	2	4	0.0455522286888362	0	1	NaN	423	7	45	1	120	220	320	NaN	520	0.0103308348916471	1	0	NaN	3184251.1915318	NaN	3184252.1749243	3184252.69148997
49	20	0	0	90	36.1581920903955	36.241610738255	9	0.300028427951038	2	4	4	NaN	1	4	0.0455522286888362	0	1	NaN	424	7	46	1	120	220	320	NaN	520	0.0104231741279364	1	1	NaN	3184253.5085268	NaN	3184254.4918635	3184255.00837343
49	20	0	0	90	36.1581920903955	36.241610738255	14	0.466710887923837	2	9	2	NaN	2	5	0.0455522286888362	0	1	NaN	425	7	47	1	120	220	320	NaN	520	1.47476157452911	2	1	NaN	3184255.8253298	NaN	3184256.8088319	3184257.32527253
49	20	0	0	90	36.1581920903955	36.241610738255	15	0.500047379918396	2	2	6	NaN	1	4	0.0455522286888362	0	1	NaN	426	7	48	1	120	220	320	NaN	520	0.051104374229908	2	0	NaN	3184259.6090286	NaN	3184260.5924125	3184261.10896863
49	20	0	0	90	36.1581920903955	36.241610738255	22	0.733402823880315	2	3	1	NaN	1	3	0.0455522286888362	0	1	NaN	427	7	49	1	120	220	320	NaN	520	0.0103520825505257	2	0	NaN	3184261.9759442	NaN	3184262.9593275	3184263.47587902
49	20	0	0	90	36.1581920903955	36.241610738255	0	0	1	8	2	NaN	2	5	0.0455522286888362	0	1	NaN	428	7	50	1	110	210	310	NaN	510	0.0553277740254998	2	1	NaN	3184264.2928197	NaN	3184265.2762172	3184265.79276463
49	20	0	0	90	36.1581920903955	36.241610738255	13	0.433374395929277	2	3	3	NaN	1	3	0.0455522286888362	0	1	NaN	429	7	51	1	120	220	320	NaN	520	0.0104095740243793	1	1	NaN	3184266.6597101	NaN	3184267.6431152	3184268.15966603
49	20	0	0	90	36.1581920903955	36.241610738255	13	0.433374395929277	2	10	4	NaN	2	4	0.0455522286888362	0	1	NaN	430	7	52	1	120	220	320	NaN	520	0.0194898266345263	2	1	NaN	3184268.9766652	NaN	3184269.9600225	3184270.47656727
49	20	0	0	90	36.1581920903955	36.241610738255	9	0.300028427951038	2	8	3	NaN	2	4	0.0455522286888362	0	1	NaN	431	7	53	1	120	220	320	NaN	520	0.0539481262676418	1	0	NaN	3184271.3100723	NaN	3184272.2935549	3184272.81011977
49	20	0	0	90	36.1581920903955	36.241610738255	15	0.500047379918396	2	12	4	NaN	2	3	0.0455522286888362	0	1	NaN	432	7	54	1	120	220	320	NaN	520	0.0104065742343664	2	1	NaN	3184273.6770809	NaN	3184274.660484	3184275.17701683
49	20	0	0	90	36.1581920903955	36.241610738255	20	0.666729839891195	2	5	1	NaN	1	5	0.0455522286888362	0	1	NaN	433	7	55	1	120	220	320	NaN	520	0.0103613305836916	1	1	NaN	3184276.0106537	NaN	3184276.9940276	3184277.51058527
49	20	0	0	90	36.1581920903955	36.241610738255	13	0.433374395929277	2	4	2	NaN	1	5	0.0455522286888362	0	1	NaN	434	7	56	1	120	220	320	NaN	520	0.0103976260870695	1	1	NaN	3184278.344214	NaN	3184279.3276008	3184279.84414527
49	20	0	0	90	36.1581920903955	36.241610738255	13	0.433374395929277	2	10	2	NaN	2	3	0.0455522286888362	0	1	NaN	435	7	57	1	120	220	320	NaN	520	1.22257662657648	1	0	NaN	3184280.6776196	NaN	3184281.6611978	3184282.17771127
49	20	0	0	90	36.1581920903955	36.241610738255	9	0.300028427951038	2	2	4	NaN	1	4	0.0455522286888362	0	1	NaN	436	7	58	1	120	220	320	NaN	520	0.0103997262194753	1	1	NaN	3184284.2114385	NaN	3184285.1948414	3184285.71139877
49	20	0	0	90	36.1581920903955	36.241610738255	16	0.533383871912956	2	12	6	NaN	2	4	0.0455522286888362	0	1	NaN	437	7	59	1	120	220	320	NaN	520	0.0104102743789554	1	0	NaN	3184286.5283322	NaN	3184287.5117346	3184288.02828463
49	20	0	0	90	36.1581920903955	36.241610738255	25	0.833412299863994	2	6	5	NaN	1	5	0.0455522286888362	0	1	NaN	438	7	60	1	120	220	320	NaN	520	0.0104077737778425	1	1	NaN	3184288.8452459	NaN	3184289.8286633	3184290.34517863
49	20	0	0	90	36.1581920903955	36.241610738255	16	0.533383871912956	2	7	6	NaN	2	4	0.0455522286888362	0	1	NaN	439	7	61	1	120	220	320	NaN	520	0.0104111740365624	1	0	NaN	3184291.1621422	NaN	3184292.1455224	3184292.66207423
49	20	0	0	90	36.1581920903955	36.241610738255	10	0.333364919945598	2	4	2	NaN	1	3	0.0455522286888362	0	1	NaN	440	7	62	1	120	220	320	NaN	520	0.0104104741476476	1	1	NaN	3184293.495667	NaN	3184294.4790748	3184294.99563973
49	20	0	0	90	36.1581920903955	36.241610738255	18	0.600056855902076	2	2	6	NaN	1	4	0.0455522286888362	0	1	NaN	441	7	63	1	120	220	320	NaN	520	0.0104110739193857	1	1	NaN	3184295.8291095	NaN	3184296.8126496	3184297.32920543
49	20	0	0	90	36.1581920903955	36.241610738255	25	0.833412299863994	2	3	5	NaN	1	4	0.0455522286888362	0	1	NaN	442	8	1	1	120	220	320	NaN	520	0.102007922250777	1	1	NaN	3184334.5665084	NaN	3184335.5497805	3184336.06633108
49	20	0	0	90	36.1581920903955	36.241610738255	7	0.233355443961918	2	4	4	NaN	1	3	0.0455522286888362	0	1	NaN	443	8	2	1	120	220	320	NaN	520	0.452709774021059	1	1	NaN	3184336.9832997	NaN	3184337.9667302	3184338.48323863
49	20	0	0	90	36.1581920903955	36.241610738255	14	0.466710887923837	2	10	3	NaN	2	3	0.0455522286888362	0	1	NaN	444	8	3	1	120	220	320	NaN	520	0.870293521787971	2	1	NaN	3184339.7500912	NaN	3184340.7336194	3184341.25017238
49	20	0	0	90	36.1581920903955	36.241610738255	20	0.666729839891195	2	12	5	NaN	2	3	0.0455522286888362	0	1	NaN	445	8	4	1	120	220	320	NaN	520	0.710370421875268	1	0	NaN	3184342.9338974	NaN	3184343.9172734	3184344.43382278
49	20	0	0	90	36.1581920903955	36.241610738255	12	0.400037903934717	2	7	5	NaN	2	4	0.0455522286888362	0	1	NaN	446	8	5	1	120	220	320	NaN	520	0.0104039739817381	2	1	NaN	3184345.9675027	NaN	3184346.9508985	3184347.46747743
49	20	0	0	90	36.1581920903955	36.241610738255	9	0.300028427951038	2	6	4	NaN	1	5	0.0455522286888362	0	1	NaN	447	8	6	1	120	220	320	NaN	520	0.0104089267551899	1	1	NaN	3184348.2843123	NaN	3184349.2677865	3184349.78435287
49	20	0	0	90	36.1581920903955	36.241610738255	21	0.700066331885755	2	8	3	NaN	2	4	0.0455522286888362	0	1	NaN	448	8	7	1	120	220	320	NaN	520	0.0103144869208336	2	1	NaN	3184350.6013202	NaN	3184351.5846936	3184352.10125241
49	20	0	0	90	36.1581920903955	36.241610738255	20	0.666729839891195	2	8	2	NaN	2	3	0.0455522286888362	0	1	NaN	449	8	8	1	120	220	320	NaN	520	0.010407074354589	2	1	NaN	3184352.9181264	NaN	3184353.901611	3184354.41813963
49	20	0	0	90	36.1581920903955	36.241610738255	16	0.533383871912956	2	4	3	NaN	1	5	0.0455522286888362	0	1	NaN	450	8	9	1	120	220	320	NaN	520	0.0104082743637264	1	1	NaN	3184355.251776	NaN	3184356.2351727	3184356.75171893
49	20	0	0	90	36.1581920903955	36.241610738255	16	0.533383871912956	2	3	2	NaN	1	5	0.0455522286888362	0	1	NaN	451	8	10	1	120	220	320	NaN	520	0.154954387340695	1	1	NaN	3184357.5853156	NaN	3184358.5687164	3184359.08526331
49	20	0	0	90	36.1581920903955	36.241610738255	9	0.300028427951038	2	4	5	NaN	1	5	0.0455522286888362	0	1	NaN	452	8	11	1	120	220	320	NaN	520	0.010411074385047	1	1	NaN	3184360.0522328	NaN	3184361.0356169	3184361.55217533
49	20	0	0	90	36.1581920903955	36.241610738255	16	0.533383871912956	2	6	5	NaN	1	4	0.0455522286888362	0	1	NaN	453	8	12	1	120	220	320	NaN	520	0.0104082743637264	1	1	NaN	3184362.3691133	NaN	3184363.3525396	3184363.86906943
49	20	0	0	90	36.1581920903955	36.241610738255	21	0.700066331885755	2	3	3	NaN	1	3	0.0455522286888362	0	1	NaN	454	8	13	1	120	220	320	NaN	520	0.0103798783384264	1	1	NaN	3184364.7025556	NaN	3184365.6860646	3184366.20263672
49	20	0	0	90	36.1581920903955	36.241610738255	22	0.733402823880315	2	6	1	NaN	1	5	0.0455522286888362	0	1	NaN	455	8	14	1	120	220	320	NaN	520	0.0104076261632144	1	1	NaN	3184367.0196023	NaN	3184368.0029829	3184368.51952147
49	20	0	0	90	36.1581920903955	36.241610738255	25	0.833412299863994	2	9	6	NaN	2	3	0.0455522286888362	0	1	NaN	456	8	15	1	120	220	320	NaN	520	0.0104079740121961	1	0	NaN	3184369.336346	NaN	3184370.3198653	3184370.83641993
