subjno	age	gender	isPractice	viewdist	CmToPixX	CmToPixY	SOA_frm	SOA_time	targNum	targID	targExample	targRace	targGender	firstTargPos	contrast	familiarity	curr_staircase	iStair	TrialNum	BlockNum	blktrl	sessionNum	TC_FIXATION	TC_RSVP_START	TC_RSVP_END	TC_BLANK	TC_RESPONSE_ONSET	RT2afc	resp_2afc	acc	RSVPOnsetVBL	RSVPOnsetTime	RSVPOffsetVBL	RSVPOffsetTime	startrt_2afc
50	22	0	0	90	36.1581920903955	36.241610738255	18	0.600043535716832	2	9	3	NaN	2	3	0.583423467416068	0	1	NaN	1	1	1	2	120	220	320	NaN	520	2.77117422781885	2	1	NaN	2162764.8165049	NaN	2162765.7998392	2162766.33295227
50	22	0	0	90	36.1581920903955	36.241610738255	15	0.500036279764026	2	12	4	NaN	2	5	0.583423467416068	0	1	NaN	2	1	2	2	120	220	320	NaN	520	0.42717252811417	2	1	NaN	2162770.0003575	NaN	2162770.9836751	2162771.51680207
50	22	0	0	90	36.1581920903955	36.241610738255	23	0.766722295638174	2	8	5	NaN	2	3	0.583423467416068	0	1	NaN	3	1	3	2	120	220	320	NaN	520	0.244550685398281	2	1	NaN	2162772.9837764	NaN	2162773.9671962	2162774.48375061
50	22	0	0	90	36.1581920903955	36.241610738255	16	0.533372031748295	2	1	3	NaN	1	5	0.583423467416068	0	1	NaN	4	1	4	2	120	220	320	NaN	520	0.0694099380634725	1	1	NaN	2162775.5507168	NaN	2162776.5341237	2162777.05066986
50	22	0	0	90	36.1581920903955	36.241610738255	13	0.43336477579549	2	8	2	NaN	2	4	0.583423467416068	0	1	NaN	5	1	5	2	120	220	320	NaN	520	0.317768070381135	2	1	NaN	2162777.9342435	NaN	2162778.917694	2162779.43423773
50	22	0	0	90	36.1581920903955	36.241610738255	7	0.233350263889879	2	1	1	NaN	1	4	0.583423467416068	0	1	NaN	6	1	6	2	120	220	320	NaN	520	0.227507070172578	2	0	NaN	2162780.5845423	NaN	2162781.5679505	2162782.08449213
50	22	0	0	90	36.1581920903955	36.241610738255	11	0.366693271826953	2	5	2	NaN	1	3	0.583423467416068	0	1	NaN	7	1	7	2	120	220	320	NaN	520	0.405474822502583	2	0	NaN	2162783.1347971	NaN	2162784.1182062	2162784.63475568
50	22	0	0	90	36.1581920903955	36.241610738255	8	0.266686015874147	2	4	3	NaN	1	5	0.583423467416068	0	1	NaN	8	1	8	2	120	220	320	NaN	520	0.304223370272666	2	0	NaN	2162785.8516555	NaN	2162786.8351117	2162787.35167713
50	22	0	0	90	36.1581920903955	36.241610738255	17	0.566707783732563	2	11	3	NaN	2	4	0.583423467416068	0	1	NaN	9	1	9	2	120	220	320	NaN	520	0.455243822187185	1	0	NaN	2162788.4685352	NaN	2162789.4520668	2162789.96860648
50	22	0	0	90	36.1581920903955	36.241610738255	6	0.200014511905611	2	4	6	NaN	1	4	0.583423467416068	0	1	NaN	10	1	10	2	120	220	320	NaN	520	0.160533770453185	1	1	NaN	2162791.2356473	NaN	2162792.218998	2162792.73554353
50	22	0	0	90	36.1581920903955	36.241610738255	16	0.533372031748295	2	9	6	NaN	2	3	0.583423467416068	0	1	NaN	11	1	11	2	120	220	320	NaN	520	0.245084822643548	2	1	NaN	2162793.719268	NaN	2162794.7025797	2162795.21912518
50	22	0	0	90	36.1581920903955	36.241610738255	8	0.266686015874147	2	7	3	NaN	2	5	0.583423467416068	0	1	NaN	12	1	12	2	120	220	320	NaN	520	0.374233022797853	2	1	NaN	2162796.286082	NaN	2162797.269488	2162797.78604108
50	22	0	0	90	36.1581920903955	36.241610738255	0	0	1	2	6	NaN	1	4	0.583423467416068	0	1	NaN	13	1	13	2	110	210	310	NaN	510	0.43377887038514	2	0	NaN	2162798.9863794	NaN	2162799.9697517	2162800.48631373
50	22	0	0	90	36.1581920903955	36.241610738255	0	0	1	11	1	NaN	2	3	0.583423467416068	0	1	NaN	14	1	14	2	110	210	310	NaN	510	0.243647770024836	2	1	NaN	2162801.7366343	NaN	2162802.7199993	2162803.23660403
50	22	0	0	90	36.1581920903955	36.241610738255	7	0.233350263889879	2	9	2	NaN	2	5	0.583423467416068	0	1	NaN	15	1	15	2	120	220	320	NaN	520	0.236765375360847	2	1	NaN	2162804.3035364	NaN	2162805.2869454	2162805.80349372
50	22	0	0	90	36.1581920903955	36.241610738255	24	0.800058047622442	2	9	1	NaN	2	5	0.583423467416068	0	1	NaN	16	1	16	2	120	220	320	NaN	520	0.390583322849125	2	1	NaN	2162806.8537903	NaN	2162807.8371963	2162808.35375658
50	22	0	0	90	36.1581920903955	36.241610738255	17	0.566707783732563	2	10	2	NaN	2	4	0.583423467416068	0	1	NaN	17	1	17	2	120	220	320	NaN	520	0.281719070393592	2	1	NaN	2162809.5707392	NaN	2162810.5541001	2162811.07067883
50	22	0	0	90	36.1581920903955	36.241610738255	17	0.566707783732563	2	7	2	NaN	2	3	0.583423467416068	0	1	NaN	18	1	18	2	120	220	320	NaN	520	1.11310398532078	2	1	NaN	2162812.1709751	NaN	2162813.1543774	2162813.67093621
50	22	0	0	90	36.1581920903955	36.241610738255	12	0.400029023811221	2	11	3	NaN	2	5	0.583423467416068	0	1	NaN	19	1	19	2	120	220	320	NaN	520	0.58351227035746	2	1	NaN	2162815.6046492	NaN	2162816.5880644	2162817.10460363
50	22	0	0	90	36.1581920903955	36.241610738255	23	0.766722295638174	2	3	4	NaN	1	4	0.583423467416068	0	1	NaN	20	1	20	2	120	220	320	NaN	520	0.0593206277117133	1	1	NaN	2162818.5049466	NaN	2162819.4883566	2162820.00490197
50	22	0	0	90	36.1581920903955	36.241610738255	11	0.366693271826953	2	2	1	NaN	1	5	0.583423467416068	0	1	NaN	21	1	21	2	120	220	320	NaN	520	0.787586422637105	1	1	NaN	2162820.8885141	NaN	2162821.8719156	2162822.38846458
50	22	0	0	90	36.1581920903955	36.241610738255	8	0.266686015874147	2	5	5	NaN	1	4	0.583423467416068	0	1	NaN	22	1	22	2	120	220	320	NaN	520	0.759268922265619	1	1	NaN	2162823.9888376	NaN	2162824.9722182	2162825.48877418
50	22	0	0	90	36.1581920903955	36.241610738255	22	0.733386543653905	2	9	3	NaN	2	3	0.583423467416068	0	1	NaN	23	1	23	2	120	220	320	NaN	520	0.475563189946115	2	1	NaN	2162827.0724407	NaN	2162828.0558611	2162828.57240971
50	22	0	0	90	36.1581920903955	36.241610738255	22	0.733386543653905	2	12	5	NaN	2	4	0.583423467416068	0	1	NaN	24	1	24	2	120	220	320	NaN	520	0.563745270483196	2	1	NaN	2162829.8727173	NaN	2162830.8560944	2162831.37267233
50	22	0	0	90	36.1581920903955	36.241610738255	13	0.43336477579549	2	7	3	NaN	2	3	0.583423467416068	0	1	NaN	25	1	25	2	120	220	320	NaN	520	2.33595452271402	2	1	NaN	2162832.7563793	NaN	2162833.7397572	2162834.25630168
50	22	0	0	90	36.1581920903955	36.241610738255	23	0.766722295638174	2	4	1	NaN	1	3	0.583423467416068	0	1	NaN	26	1	26	2	120	220	320	NaN	520	0.29325437033549	1	1	NaN	2162837.4067922	NaN	2162838.3902266	2162838.90674823
50	22	0	0	90	36.1581920903955	36.241610738255	20	0.666715039685368	2	7	5	NaN	2	5	0.583423467416068	0	1	NaN	27	1	27	2	120	220	320	NaN	520	0.268491822760552	2	1	NaN	2162840.0238191	NaN	2162841.0071364	2162841.52368368
50	22	0	0	90	36.1581920903955	36.241610738255	10	0.333357519842684	2	2	2	NaN	1	4	0.583423467416068	0	1	NaN	28	1	28	2	120	220	320	NaN	520	0.0104177226312459	1	1	NaN	2162842.6073152	NaN	2162843.5907091	2162844.10726178
50	22	0	0	90	36.1581920903955	36.241610738255	15	0.500036279764026	2	5	3	NaN	1	5	0.583423467416068	0	1	NaN	29	1	29	2	120	220	320	NaN	520	0.0713781230151653	2	0	NaN	2162844.9408817	NaN	2162845.9242518	2162846.44083538
50	22	0	0	90	36.1581920903955	36.241610738255	11	0.366693271826953	2	8	5	NaN	2	3	0.583423467416068	0	1	NaN	30	1	30	2	120	220	320	NaN	520	0.15126382233575	1	0	NaN	2162847.3411155	NaN	2162848.3244141	2162848.84107068
50	22	0	0	90	36.1581920903955	36.241610738255	7	0.233350263889879	2	6	6	NaN	1	5	0.583423467416068	0	1	NaN	31	1	31	2	120	220	320	NaN	520	0.0104012223891914	1	1	NaN	2162849.8080148	NaN	2162850.7914529	2162851.30797898
50	22	0	0	90	36.1581920903955	36.241610738255	24	0.800058047622442	2	12	6	NaN	2	5	0.583423467416068	0	1	NaN	32	1	32	2	120	220	320	NaN	520	0.0103948754258454	2	1	NaN	2162852.1415964	NaN	2162853.1249773	2162853.64154022
50	22	0	0	90	36.1581920903955	36.241610738255	13	0.43336477579549	2	12	3	NaN	2	4	0.583423467416068	0	1	NaN	33	1	33	2	120	220	320	NaN	520	0.15282262256369	2	1	NaN	2162854.4751526	NaN	2162855.4585585	2162855.97510238
50	22	0	0	90	36.1581920903955	36.241610738255	18	0.600043535716832	2	11	1	NaN	2	4	0.583423467416068	0	1	NaN	34	1	34	2	120	220	320	NaN	520	0.0104076704010367	2	1	NaN	2162856.9420619	NaN	2162857.9254597	2162858.44201513
50	22	0	0	90	36.1581920903955	36.241610738255	16	0.533372031748295	2	7	4	NaN	2	5	0.583423467416068	0	1	NaN	35	1	35	2	120	220	320	NaN	520	0.0104061225429177	2	1	NaN	2162859.2589664	NaN	2162860.2423609	2162860.75890488
50	22	0	0	90	36.1581920903955	36.241610738255	21	0.700050791669637	2	2	5	NaN	1	5	0.583423467416068	0	1	NaN	36	1	36	2	120	220	320	NaN	520	0.204445390030742	2	0	NaN	2162861.575852	NaN	2162862.5592409	2162863.07580921
50	22	0	0	90	36.1581920903955	36.241610738255	9	0.300021767858416	2	8	6	NaN	2	4	0.583423467416068	0	1	NaN	37	1	37	2	120	220	320	NaN	520	0.151590722613037	2	1	NaN	2162864.092785	NaN	2162865.0761688	2162865.59271178
50	22	0	0	90	36.1581920903955	36.241610738255	16	0.533372031748295	2	8	2	NaN	2	3	0.583423467416068	0	1	NaN	38	1	38	2	120	220	320	NaN	520	0.556831437628716	2	1	NaN	2162866.5596493	NaN	2162867.543061	2162868.05962266
50	22	0	0	90	36.1581920903955	36.241610738255	18	0.600043535716832	2	2	2	NaN	1	5	0.583423467416068	0	1	NaN	39	1	39	2	120	220	320	NaN	520	0.0251721227541566	1	1	NaN	2162869.4266099	NaN	2162870.4100129	2162870.92657318
50	22	0	0	90	36.1581920903955	36.241610738255	6	0.200014511905611	2	4	1	NaN	1	4	0.583423467416068	0	1	NaN	40	1	40	2	120	220	320	NaN	520	0.0104341227561235	1	1	NaN	2162871.7601561	NaN	2162872.7435854	2162873.26012828
50	22	0	0	90	36.1581920903955	36.241610738255	20	0.666715039685368	2	12	6	NaN	2	5	0.583423467416068	0	1	NaN	41	1	41	2	120	220	320	NaN	520	0.111291117966175	1	0	NaN	2162874.0769595	NaN	2162875.0605116	2162875.57702208
50	22	0	0	90	36.1581920903955	36.241610738255	0	0	1	1	3	NaN	1	3	0.583423467416068	0	1	NaN	42	1	42	2	110	210	310	NaN	510	0.0104564703069627	1	1	NaN	2162876.4939945	NaN	2162877.477373	2162877.99392443
50	22	0	0	90	36.1581920903955	36.241610738255	9	0.300021767858416	2	8	4	NaN	2	5	0.583423467416068	0	1	NaN	43	1	43	2	120	220	320	NaN	520	0.297639822587371	1	0	NaN	2162878.8109088	NaN	2162879.7942602	2162880.31082758
50	22	0	0	90	36.1581920903955	36.241610738255	25	0.833393799606711	2	9	1	NaN	2	4	0.583423467416068	0	1	NaN	44	1	44	2	120	220	320	NaN	520	0.0565165225416422	2	1	NaN	2162881.427798	NaN	2162882.4111874	2162882.92775178
50	22	0	0	90	36.1581920903955	36.241610738255	9	0.300021767858416	2	9	6	NaN	2	3	0.583423467416068	0	1	NaN	45	1	45	2	120	220	320	NaN	520	0.585482670459896	2	1	NaN	2162883.79467	NaN	2162884.7781085	2162885.29464583
50	22	0	0	90	36.1581920903955	36.241610738255	8	0.266686015874147	2	11	2	NaN	2	4	0.583423467416068	0	1	NaN	46	1	46	2	120	220	320	NaN	520	0.525154022499919	2	1	NaN	2162886.6949876	NaN	2162887.6783796	2162888.19493988
50	22	0	0	90	36.1581920903955	36.241610738255	16	0.533372031748295	2	2	3	NaN	1	5	0.583423467416068	0	1	NaN	47	1	47	2	120	220	320	NaN	520	0.387614322360605	2	0	NaN	2162889.5284702	NaN	2162890.5120031	2162891.02854788
50	22	0	0	90	36.1581920903955	36.241610738255	23	0.766722295638174	2	7	6	NaN	2	3	0.583423467416068	0	1	NaN	48	1	48	2	120	220	320	NaN	520	0.303503522649407	2	1	NaN	2162892.2288846	NaN	2162893.2122495	2162893.72881488
50	22	0	0	90	36.1581920903955	36.241610738255	25	0.833393799606711	2	5	3	NaN	1	5	0.583423467416068	0	1	NaN	49	1	49	2	120	220	320	NaN	520	0.270434722304344	1	1	NaN	2162894.8457703	NaN	2162895.8291946	2162896.34573768
50	22	0	0	90	36.1581920903955	36.241610738255	22	0.733386543653905	2	9	1	NaN	2	4	0.583423467416068	0	1	NaN	50	1	50	2	120	220	320	NaN	520	0.60715512232855	2	1	NaN	2162897.4293607	NaN	2162898.4127674	2162898.92931668
50	22	0	0	90	36.1581920903955	36.241610738255	17	0.566707783732563	2	5	3	NaN	1	4	0.583423467416068	0	1	NaN	51	1	51	2	120	220	320	NaN	520	0.286658227909356	1	1	NaN	2162900.6296783	NaN	2162901.6130895	2162902.12963317
50	22	0	0	90	36.1581920903955	36.241610738255	21	0.700050791669637	2	10	5	NaN	2	3	0.583423467416068	0	1	NaN	52	1	52	2	120	220	320	NaN	520	0.334413922391832	1	0	NaN	2162903.22993	NaN	2162904.2133466	2162904.72989168
50	22	0	0	90	36.1581920903955	36.241610738255	22	0.733386543653905	2	12	2	NaN	2	3	0.583423467416068	0	1	NaN	53	1	53	2	120	220	320	NaN	520	0.580830375198275	2	1	NaN	2162905.8635287	NaN	2162906.8469521	2162907.36348032
50	22	0	0	90	36.1581920903955	36.241610738255	8	0.266686015874147	2	2	6	NaN	1	4	0.583423467416068	0	1	NaN	54	1	54	2	120	220	320	NaN	520	0.216495922300965	2	0	NaN	2162908.7637074	NaN	2162909.747212	2162910.26376788
50	22	0	0	90	36.1581920903955	36.241610738255	13	0.43336477579549	2	1	5	NaN	1	5	0.583423467416068	0	1	NaN	55	1	55	2	120	220	320	NaN	520	0.12274606525898	2	0	NaN	2162911.2973798	NaN	2162912.280806	2162912.79734513
50	22	0	0	90	36.1581920903955	36.241610738255	21	0.700050791669637	2	1	6	NaN	1	5	0.583423467416068	0	1	NaN	56	1	56	2	120	220	320	NaN	520	0.0103916227817535	2	0	NaN	2162913.7309239	NaN	2162914.7143665	2162915.23092558
50	22	0	0	90	36.1581920903955	36.241610738255	19	0.6333792877011	2	12	1	NaN	2	3	0.583423467416068	0	1	NaN	57	1	57	2	120	220	320	NaN	520	0.172359547577798	2	1	NaN	2162916.0478554	NaN	2162917.0312732	2162917.54783975
50	22	0	0	90	36.1581920903955	36.241610738255	13	0.43336477579549	2	3	2	NaN	1	5	0.583423467416068	0	1	NaN	58	1	58	2	120	220	320	NaN	520	1.86298907035962	2	0	NaN	2162918.7814199	NaN	2162919.7648763	2162920.28141753
50	22	0	0	90	36.1581920903955	36.241610738255	7	0.233350263889879	2	1	3	NaN	1	5	0.583423467416068	0	1	NaN	59	1	59	2	120	220	320	NaN	520	0.206987523008138	1	1	NaN	2162922.9652257	NaN	2162923.9486458	2162924.46517218
50	22	0	0	90	36.1581920903955	36.241610738255	8	0.266686015874147	2	9	1	NaN	2	4	0.583423467416068	0	1	NaN	60	1	60	2	120	220	320	NaN	520	0.290100970305502	2	1	NaN	2162925.482073	NaN	2162926.4655163	2162926.98207583
50	22	0	0	90	36.1581920903955	36.241610738255	15	0.500036279764026	2	10	2	NaN	2	4	0.583423467416068	0	1	NaN	61	1	61	2	120	220	320	NaN	520	0.679470122326165	2	1	NaN	2162928.1490882	NaN	2162929.1324656	2162929.64900878
50	22	0	0	90	36.1581920903955	36.241610738255	6	0.200014511905611	2	11	5	NaN	2	5	0.583423467416068	0	1	NaN	62	1	62	2	120	220	320	NaN	520	0.167211222928017	2	1	NaN	2162931.1493622	NaN	2162932.1327487	2162932.64930388
50	22	0	0	90	36.1581920903955	36.241610738255	0	0	1	10	1	NaN	2	5	0.583423467416068	0	1	NaN	63	1	63	2	110	210	310	NaN	510	0.57942462246865	1	0	NaN	2162933.6328035	NaN	2162934.616338	2162935.13288638
50	22	0	0	90	36.1581920903955	36.241610738255	8	0.266686015874147	2	3	2	NaN	1	3	0.583423467416068	0	1	NaN	64	2	1	2	120	220	320	NaN	520	0.0492442226968706	2	0	NaN	2162941.0669715	NaN	2162942.0502953	2162942.56695188
50	22	0	0	90	36.1581920903955	36.241610738255	15	0.500036279764026	2	1	2	NaN	1	4	0.583423467416068	0	1	NaN	65	2	2	2	120	220	320	NaN	520	0.0264470223337412	1	1	NaN	2162943.4340026	NaN	2162944.4172973	2162944.93384778
50	22	0	0	90	36.1581920903955	36.241610738255	22	0.733386543653905	2	2	4	NaN	1	4	0.583423467416068	0	1	NaN	66	2	3	2	120	220	320	NaN	520	0.010393422562629	2	0	NaN	2162945.7841077	NaN	2162946.7675407	2162947.28407798
50	22	0	0	90	36.1581920903955	36.241610738255	21	0.700050791669637	2	3	3	NaN	1	3	0.583423467416068	0	1	NaN	67	2	4	2	120	220	320	NaN	520	0.0103895226493478	1	1	NaN	2162948.1010426	NaN	2162949.0844181	2162949.60096978
50	22	0	0	90	36.1581920903955	36.241610738255	14	0.466700527779758	2	4	4	NaN	1	5	0.583423467416068	0	1	NaN	68	2	5	2	120	220	320	NaN	520	0.0265401704236865	1	1	NaN	2162950.417904	NaN	2162951.4013061	2162951.91786113
50	22	0	0	90	36.1581920903955	36.241610738255	14	0.466700527779758	2	8	5	NaN	2	5	0.583423467416068	0	1	NaN	69	2	6	2	120	220	320	NaN	520	0.324126175139099	1	0	NaN	2162952.7681457	NaN	2162953.7515511	2162954.26810482
50	22	0	0	90	36.1581920903955	36.241610738255	17	0.566707783732563	2	4	3	NaN	1	4	0.583423467416068	0	1	NaN	70	2	7	2	120	220	320	NaN	520	0.0862408224493265	2	0	NaN	2162955.7016445	NaN	2162956.6851767	2162957.20172668
50	22	0	0	90	36.1581920903955	36.241610738255	23	0.766722295638174	2	5	1	NaN	1	5	0.583423467416068	0	1	NaN	71	2	8	2	120	220	320	NaN	520	0.222404622472823	2	0	NaN	2162958.1020114	NaN	2162959.0853961	2162959.60195768
50	22	0	0	90	36.1581920903955	36.241610738255	8	0.266686015874147	2	9	3	NaN	2	5	0.583423467416068	0	1	NaN	72	2	9	2	120	220	320	NaN	520	0.156826770398766	2	1	NaN	2162960.7355707	NaN	2162961.7190061	2162962.23555233
50	22	0	0	90	36.1581920903955	36.241610738255	12	0.400029023811221	2	10	6	NaN	2	3	0.583423467416068	0	1	NaN	73	2	10	2	120	220	320	NaN	520	0.0818578223697841	2	1	NaN	2162963.2025172	NaN	2162964.1858822	2162964.70246128
50	22	0	0	90	36.1581920903955	36.241610738255	15	0.500036279764026	2	2	4	NaN	1	3	0.583423467416068	0	1	NaN	74	2	11	2	120	220	320	NaN	520	0.353525922633708	2	0	NaN	2162965.6027363	NaN	2162966.5861419	2162967.10269738
50	22	0	0	90	36.1581920903955	36.241610738255	19	0.6333792877011	2	5	2	NaN	1	3	0.583423467416068	0	1	NaN	75	2	12	2	120	220	320	NaN	520	0.0866879704408348	2	0	NaN	2162968.2696911	NaN	2162969.2530783	2162969.76962043
50	22	0	0	90	36.1581920903955	36.241610738255	9	0.300021767858416	2	5	1	NaN	1	3	0.583423467416068	0	1	NaN	76	2	13	2	120	220	320	NaN	520	0.446741222869605	2	0	NaN	2162970.6698979	NaN	2162971.6533072	2162972.16986418
50	22	0	0	90	36.1581920903955	36.241610738255	25	0.833393799606711	2	10	5	NaN	2	4	0.583423467416068	0	1	NaN	77	2	14	2	120	220	320	NaN	520	0.272139022592455	1	0	NaN	2162973.4201731	NaN	2162974.4035704	2162974.92012668
50	22	0	0	90	36.1581920903955	36.241610738255	25	0.833393799606711	2	12	6	NaN	2	5	0.583423467416068	0	1	NaN	78	2	15	2	120	220	320	NaN	520	0.296752570662647	2	1	NaN	2162976.0037818	NaN	2162976.9872089	2162977.50372173
50	22	0	0	90	36.1581920903955	36.241610738255	6	0.200014511905611	2	2	2	NaN	1	5	0.583423467416068	0	1	NaN	79	2	16	2	120	220	320	NaN	520	0.183674522209913	1	1	NaN	2162978.6207103	NaN	2162979.6040943	2162980.12064718
50	22	0	0	90	36.1581920903955	36.241610738255	18	0.600043535716832	2	1	6	NaN	1	4	0.583423467416068	0	1	NaN	80	2	17	2	120	220	320	NaN	520	0.363522622734308	2	0	NaN	2162981.1209397	NaN	2162982.1043408	2162982.62088198
50	22	0	0	90	36.1581920903955	36.241610738255	16	0.533372031748295	2	9	6	NaN	2	3	0.583423467416068	0	1	NaN	81	2	18	2	120	220	320	NaN	520	0.265065722633153	2	1	NaN	2162983.9711777	NaN	2162984.9546017	2162985.47116718
50	22	0	0	90	36.1581920903955	36.241610738255	17	0.566707783732563	2	12	4	NaN	2	4	0.583423467416068	0	1	NaN	82	2	19	2	120	220	320	NaN	520	0.0497713326476514	1	0	NaN	2162986.5548094	NaN	2162987.5381832	2162988.05475147
50	22	0	0	90	36.1581920903955	36.241610738255	19	0.6333792877011	2	1	3	NaN	1	3	0.583423467416068	0	1	NaN	83	2	20	2	120	220	320	NaN	520	0.234933475032449	2	0	NaN	2162988.9217102	NaN	2162989.9051076	2162990.42165032
50	22	0	0	90	36.1581920903955	36.241610738255	6	0.200014511905611	2	10	2	NaN	2	5	0.583423467416068	0	1	NaN	84	2	21	2	120	220	320	NaN	520	0.612122122664005	2	1	NaN	2162991.4719479	NaN	2162992.4553598	2162992.97190958
50	22	0	0	90	36.1581920903955	36.241610738255	20	0.666715039685368	2	9	2	NaN	2	3	0.583423467416068	0	1	NaN	85	2	22	2	120	220	320	NaN	520	0.126773770432919	1	0	NaN	2162994.4055698	NaN	2162995.388966	2162995.90552003
50	22	0	0	90	36.1581920903955	36.241610738255	11	0.366693271826953	2	7	5	NaN	2	5	0.583423467416068	0	1	NaN	86	2	23	2	120	220	320	NaN	520	0.252849322743714	2	1	NaN	2162996.8558074	NaN	2162997.8392233	2162998.35577828
50	22	0	0	90	36.1581920903955	36.241610738255	7	0.233350263889879	2	4	2	NaN	1	4	0.583423467416068	0	1	NaN	87	2	24	2	120	220	320	NaN	520	0.0104046706110239	1	1	NaN	2162999.4226017	NaN	2163000.4061345	2163000.92268393
50	22	0	0	90	36.1581920903955	36.241610738255	11	0.366693271826953	2	3	1	NaN	1	5	0.583423467416068	0	1	NaN	88	2	25	2	120	220	320	NaN	520	0.24897427065298	2	0	NaN	2163001.7395066	NaN	2163002.7230007	2163003.23957323
50	22	0	0	90	36.1581920903955	36.241610738255	23	0.766722295638174	2	6	3	NaN	1	3	0.583423467416068	0	1	NaN	89	2	26	2	120	220	320	NaN	520	0.0339480275288224	1	1	NaN	2163004.3065565	NaN	2163005.2899506	2163005.80649667
50	22	0	0	90	36.1581920903955	36.241610738255	19	0.6333792877011	2	7	4	NaN	2	4	0.583423467416068	0	1	NaN	90	2	27	2	120	220	320	NaN	520	0.256372995208949	2	1	NaN	2163006.7401312	NaN	2163007.7235105	2163008.2400809
50	22	0	0	90	36.1581920903955	36.241610738255	13	0.43336477579549	2	9	4	NaN	2	4	0.583423467416068	0	1	NaN	91	2	28	2	120	220	320	NaN	520	0.561421070247889	2	1	NaN	2163009.3071413	NaN	2163010.2905743	2163010.80699273
50	22	0	0	90	36.1581920903955	36.241610738255	14	0.466700527779758	2	3	3	NaN	1	3	0.583423467416068	0	1	NaN	92	2	29	2	120	220	320	NaN	520	0.0103751276619732	1	1	NaN	2163012.1906665	NaN	2163013.1740587	2163013.69061527
50	22	0	0	90	36.1581920903955	36.241610738255	24	0.800058047622442	2	4	2	NaN	1	4	0.583423467416068	0	1	NaN	93	2	30	2	120	220	320	NaN	520	0.0482836901210248	1	1	NaN	2163014.524209	NaN	2163015.5076495	2163016.02418041
50	22	0	0	90	36.1581920903955	36.241610738255	11	0.366693271826953	2	12	1	NaN	2	3	0.583423467416068	0	1	NaN	94	2	31	2	120	220	320	NaN	520	0.177468670066446	1	0	NaN	2163016.8911094	NaN	2163017.8745239	2163018.39106293
50	22	0	0	90	36.1581920903955	36.241610738255	0	0	1	5	1	NaN	1	5	0.583423467416068	0	1	NaN	95	2	32	2	110	210	310	NaN	510	0.421617522835732	1	1	NaN	2163019.3747027	NaN	2163020.3580888	2163020.87464438
50	22	0	0	90	36.1581920903955	36.241610738255	14	0.466700527779758	2	11	2	NaN	2	4	0.583423467416068	0	1	NaN	96	2	33	2	120	220	320	NaN	520	0.010406022425741	2	1	NaN	2163022.1082915	NaN	2163023.0917037	2163023.60825658
50	22	0	0	90	36.1581920903955	36.241610738255	12	0.400029023811221	2	1	6	NaN	1	4	0.583423467416068	0	1	NaN	97	2	34	2	120	220	320	NaN	520	0.117829270660877	2	0	NaN	2163024.7585415	NaN	2163025.7419836	2163026.25850603
50	22	0	0	90	36.1581920903955	36.241610738255	10	0.333357519842684	2	5	6	NaN	1	5	0.583423467416068	0	1	NaN	98	2	35	2	120	220	320	NaN	520	0.0104302703402936	2	0	NaN	2163027.1921292	NaN	2163028.1755314	2163028.69208833
50	22	0	0	90	36.1581920903955	36.241610738255	17	0.566707783732563	2	2	3	NaN	1	3	0.583423467416068	0	1	NaN	99	2	36	2	120	220	320	NaN	520	0.119325455278158	2	0	NaN	2163029.909047	NaN	2163030.8924529	2163031.40900684
50	22	0	0	90	36.1581920903955	36.241610738255	15	0.500036279764026	2	11	5	NaN	2	3	0.583423467416068	0	1	NaN	100	2	37	2	120	220	320	NaN	520	0.182020070496947	2	1	NaN	2163032.3258424	NaN	2163033.3093602	2163033.82591963
50	22	0	0	90	36.1581920903955	36.241610738255	18	0.600043535716832	2	7	3	NaN	2	3	0.583423467416068	0	1	NaN	101	2	38	2	120	220	320	NaN	520	0.218453917652369	2	1	NaN	2163034.8262216	NaN	2163035.8096156	2163036.32617378
50	22	0	0	90	36.1581920903955	36.241610738255	7	0.233350263889879	2	3	5	NaN	1	3	0.583423467416068	0	1	NaN	102	2	39	2	120	220	320	NaN	520	0.676874822936952	2	0	NaN	2163037.3597827	NaN	2163038.3432363	2163038.85974898
50	22	0	0	90	36.1581920903955	36.241610738255	19	0.6333792877011	2	8	4	NaN	2	5	0.583423467416068	0	1	NaN	103	2	40	2	120	220	320	NaN	520	0.0370932226069272	2	1	NaN	2163040.3434381	NaN	2163041.3268229	2163041.84338248
50	22	0	0	90	36.1581920903955	36.241610738255	6	0.200014511905611	2	6	4	NaN	1	4	0.583423467416068	0	1	NaN	104	2	41	2	120	220	320	NaN	520	0.0104066226631403	1	1	NaN	2163042.6936647	NaN	2163043.677063	2163044.19361298
50	22	0	0	90	36.1581920903955	36.241610738255	18	0.600043535716832	2	1	1	NaN	1	5	0.583423467416068	0	1	NaN	105	2	42	2	120	220	320	NaN	520	0.649774922523648	2	0	NaN	2163045.0105562	NaN	2163045.9939274	2163046.51050918
50	22	0	0	90	36.1581920903955	36.241610738255	0	0	1	1	5	NaN	1	5	0.583423467416068	0	1	NaN	106	2	43	2	110	210	310	NaN	510	0.35352812288329	2	0	NaN	2163048.2107507	NaN	2163049.1942607	2163049.71081678
50	22	0	0	90	36.1581920903955	36.241610738255	23	0.766722295638174	2	9	2	NaN	2	3	0.583423467416068	0	1	NaN	107	2	44	2	120	220	320	NaN	520	0.0862880228087306	2	1	NaN	2163050.8777989	NaN	2163051.8612009	2163052.37775138
50	22	0	0	90	36.1581920903955	36.241610738255	20	0.666715039685368	2	3	4	NaN	1	5	0.583423467416068	0	1	NaN	108	2	45	2	120	220	320	NaN	520	0.238668222445995	1	1	NaN	2163053.2780152	NaN	2163054.2614552	2163054.77798808
50	22	0	0	90	36.1581920903955	36.241610738255	8	0.266686015874147	2	5	4	NaN	1	4	0.583423467416068	0	1	NaN	109	2	46	2	120	220	320	NaN	520	0.0478819701820612	2	0	NaN	2163055.8282789	NaN	2163056.8115821	2163057.32822903
50	22	0	0	90	36.1581920903955	36.241610738255	12	0.400029023811221	2	6	3	NaN	1	4	0.583423467416068	0	1	NaN	110	2	47	2	120	220	320	NaN	520	0.406877322588116	1	1	NaN	2163058.2619588	NaN	2163059.2452518	2163059.76180958
50	22	0	0	90	36.1581920903955	36.241610738255	11	0.366693271826953	2	1	4	NaN	1	5	0.583423467416068	0	1	NaN	111	2	48	2	120	220	320	NaN	520	0.401575838215649	1	1	NaN	2163060.978792	NaN	2163061.9621762	2163062.47873596
50	22	0	0	90	36.1581920903955	36.241610738255	22	0.733386543653905	2	7	5	NaN	2	3	0.583423467416068	0	1	NaN	112	2	49	2	120	220	320	NaN	520	0.0103902225382626	2	1	NaN	2163063.6957158	NaN	2163064.6791407	2163065.19567778
50	22	0	0	90	36.1581920903955	36.241610738255	15	0.500036279764026	2	4	6	NaN	1	3	0.583423467416068	0	1	NaN	113	2	50	2	120	220	320	NaN	520	0.485213228035718	1	1	NaN	2163066.2792714	NaN	2163067.2627206	2163067.77926227
50	22	0	0	90	36.1581920903955	36.241610738255	24	0.800058047622442	2	7	1	NaN	2	4	0.583423467416068	0	1	NaN	114	2	51	2	120	220	320	NaN	520	0.300812122877687	2	1	NaN	2163069.0795784	NaN	2163070.0629667	2163070.57954018
50	22	0	0	90	36.1581920903955	36.241610738255	16	0.533372031748295	2	10	3	NaN	2	3	0.583423467416068	0	1	NaN	115	2	52	2	120	220	320	NaN	520	0.099927875213325	2	1	NaN	2163071.6965231	NaN	2163072.6799144	2163073.19646712
50	22	0	0	90	36.1581920903955	36.241610738255	21	0.700050791669637	2	8	1	NaN	2	3	0.583423467416068	0	1	NaN	116	2	53	2	120	220	320	NaN	520	0.395350170787424	2	1	NaN	2163074.113395	NaN	2163075.0968161	2163075.61336063
50	22	0	0	90	36.1581920903955	36.241610738255	19	0.6333792877011	2	2	6	NaN	1	5	0.583423467416068	0	1	NaN	117	2	54	2	120	220	320	NaN	520	0.238150670193136	2	0	NaN	2163076.8303403	NaN	2163077.8137476	2163078.33029313
50	22	0	0	90	36.1581920903955	36.241610738255	10	0.333357519842684	2	9	5	NaN	2	4	0.583423467416068	0	1	NaN	118	2	55	2	120	220	320	NaN	520	0.135917270556092	2	1	NaN	2163079.3805932	NaN	2163080.3640097	2163080.88054503
50	22	0	0	90	36.1581920903955	36.241610738255	18	0.600043535716832	2	4	6	NaN	1	5	0.583423467416068	0	1	NaN	119	2	56	2	120	220	320	NaN	520	0.0103936223313212	2	0	NaN	2163081.8308327	NaN	2163082.8142325	2163083.33078548
50	22	0	0	90	36.1581920903955	36.241610738255	13	0.43336477579549	2	11	4	NaN	2	3	0.583423467416068	0	1	NaN	120	2	57	2	120	220	320	NaN	520	0.0104299178346992	2	1	NaN	2163084.1476977	NaN	2163085.1311398	2163085.64768258
50	22	0	0	90	36.1581920903955	36.241610738255	10	0.333357519842684	2	3	3	NaN	1	4	0.583423467416068	0	1	NaN	121	2	58	2	120	220	320	NaN	520	0.0104103228077292	1	1	NaN	2163086.4813019	NaN	2163087.464702	2163087.98124468
50	22	0	0	90	36.1581920903955	36.241610738255	10	0.333357519842684	2	1	5	NaN	1	3	0.583423467416068	0	1	NaN	122	2	59	2	120	220	320	NaN	520	0.214111670386046	2	0	NaN	2163088.798063	NaN	2163089.7816028	2163090.29815013
50	22	0	0	90	36.1581920903955	36.241610738255	17	0.566707783732563	2	10	6	NaN	2	5	0.583423467416068	0	1	NaN	123	2	60	2	120	220	320	NaN	520	0.705003075301647	2	1	NaN	2163091.3317744	NaN	2163092.3151595	2163092.83171842
50	22	0	0	90	36.1581920903955	36.241610738255	17	0.566707783732563	2	7	6	NaN	2	5	0.583423467416068	0	1	NaN	124	2	61	2	120	220	320	NaN	520	0.0103918225504458	2	1	NaN	2163094.3486123	NaN	2163095.3321431	2163095.84868918
50	22	0	0	90	36.1581920903955	36.241610738255	7	0.233350263889879	2	5	5	NaN	1	5	0.583423467416068	0	1	NaN	125	2	62	2	120	220	320	NaN	520	0.77116782264784	1	1	NaN	2163096.6656775	NaN	2163097.6490143	2163098.16558068
50	22	0	0	90	36.1581920903955	36.241610738255	25	0.833393799606711	2	4	5	NaN	1	4	0.583423467416068	0	1	NaN	126	2	63	2	120	220	320	NaN	520	1.1111167226918	1	1	NaN	2163099.7492554	NaN	2163100.7326732	2163101.24922018
50	22	0	0	90	36.1581920903955	36.241610738255	6	0.200014511905611	2	8	1	NaN	2	3	0.583423467416068	0	1	NaN	127	3	1	2	120	220	320	NaN	520	0.684066522866488	1	0	NaN	2163115.0007378	NaN	2163115.9841794	2163116.50072088
50	22	0	0	90	36.1581920903955	36.241610738255	18	0.600043535716832	2	9	5	NaN	2	4	0.583423467416068	0	1	NaN	128	3	2	2	120	220	320	NaN	520	0.275478422641754	2	1	NaN	2163118.0010673	NaN	2163118.9844583	2163119.50101328
50	22	0	0	90	36.1581920903955	36.241610738255	22	0.733386543653905	2	5	4	NaN	1	4	0.583423467416068	0	1	NaN	129	3	3	2	120	220	320	NaN	520	0.443719422910362	2	0	NaN	2163120.5846483	NaN	2163121.5680517	2163122.08460468
50	22	0	0	90	36.1581920903955	36.241610738255	7	0.233350263889879	2	7	6	NaN	2	5	0.583423467416068	0	1	NaN	130	3	4	2	120	220	320	NaN	520	0.010393422562629	2	1	NaN	2163123.3348104	NaN	2163124.3183153	2163124.83487838
50	22	0	0	90	36.1581920903955	36.241610738255	21	0.700050791669637	2	11	3	NaN	2	5	0.583423467416068	0	1	NaN	131	3	5	2	120	220	320	NaN	520	0.0887189223431051	2	1	NaN	2163125.6518018	NaN	2163126.635227	2163127.15176808
50	22	0	0	90	36.1581920903955	36.241610738255	21	0.700050791669637	2	9	5	NaN	2	3	0.583423467416068	0	1	NaN	132	3	6	2	120	220	320	NaN	520	0.320673222187907	2	1	NaN	2163128.0520498	NaN	2163129.0354563	2163129.55200618
50	22	0	0	90	36.1581920903955	36.241610738255	16	0.533372031748295	2	11	3	NaN	2	4	0.583423467416068	0	1	NaN	133	3	7	2	120	220	320	NaN	520	1.48711657011881	2	1	NaN	2163130.6856569	NaN	2163131.6690784	2163132.18560553
50	22	0	0	90	36.1581920903955	36.241610738255	21	0.700050791669637	2	11	3	NaN	2	3	0.583423467416068	0	1	NaN	134	3	8	2	120	220	320	NaN	520	0.382643784862012	2	1	NaN	2163134.486016	NaN	2163135.469435	2163135.98597141
50	22	0	0	90	36.1581920903955	36.241610738255	15	0.500036279764026	2	12	2	NaN	2	4	0.583423467416068	0	1	NaN	135	3	9	2	120	220	320	NaN	520	0.402578470297158	1	0	NaN	2163137.1862065	NaN	2163138.1696759	2163138.68622983
50	22	0	0	90	36.1581920903955	36.241610738255	14	0.466700527779758	2	12	3	NaN	2	4	0.583423467416068	0	1	NaN	136	3	10	2	120	220	320	NaN	520	0.885296570602804	1	0	NaN	2163139.9032048	NaN	2163140.8866193	2163141.40316163
50	22	0	0	90	36.1581920903955	36.241610738255	18	0.600043535716832	2	6	6	NaN	1	4	0.583423467416068	0	1	NaN	137	3	11	2	120	220	320	NaN	520	0.357301722280681	1	1	NaN	2163143.1033898	NaN	2163144.0869222	2163144.60348338
50	22	0	0	90	36.1581920903955	36.241610738255	25	0.833393799606711	2	2	5	NaN	1	4	0.583423467416068	0	1	NaN	138	3	12	2	120	220	320	NaN	520	0.402326770592481	1	1	NaN	2163145.7703356	NaN	2163146.7538579	2163147.27040583
50	22	0	0	90	36.1581920903955	36.241610738255	18	0.600043535716832	2	5	4	NaN	1	3	0.583423467416068	0	1	NaN	139	3	13	2	120	220	320	NaN	520	0.469463222660124	1	1	NaN	2163148.4874008	NaN	2163149.4708721	2163149.98734888
50	22	0	0	90	36.1581920903955	36.241610738255	7	0.233350263889879	2	11	4	NaN	2	3	0.583423467416068	0	1	NaN	140	3	14	2	120	220	320	NaN	520	0.0215466702356935	2	1	NaN	2163151.2708874	NaN	2163152.2544026	2163152.77094973
50	22	0	0	90	36.1581920903955	36.241610738255	19	0.6333792877011	2	3	3	NaN	1	3	0.583423467416068	0	1	NaN	141	3	15	2	120	220	320	NaN	520	0.120303522795439	1	1	NaN	2163153.6045727	NaN	2163154.587959	2163155.10451718
50	22	0	0	90	36.1581920903955	36.241610738255	11	0.366693271826953	2	3	5	NaN	1	3	0.583423467416068	0	1	NaN	142	3	16	2	120	220	320	NaN	520	0.0103324325755239	2	0	NaN	2163156.0381286	NaN	2163157.0215398	2163157.53808807
50	22	0	0	90	36.1581920903955	36.241610738255	6	0.200014511905611	2	9	2	NaN	2	3	0.583423467416068	0	1	NaN	143	3	17	2	120	220	320	NaN	520	0.512823122553527	2	1	NaN	2163158.3717155	NaN	2163159.3551197	2163159.87165218
50	22	0	0	90	36.1581920903955	36.241610738255	18	0.600043535716832	2	10	5	NaN	2	5	0.583423467416068	0	1	NaN	144	3	18	2	120	220	320	NaN	520	0.0388721222989261	1	0	NaN	2163161.205319	NaN	2163162.1886973	2163162.70526488
50	22	0	0	90	36.1581920903955	36.241610738255	22	0.733386543653905	2	1	6	NaN	1	5	0.583423467416068	0	1	NaN	145	3	19	2	120	220	320	NaN	520	0.16118282219395	2	0	NaN	2163163.5554233	NaN	2163164.5389332	2163165.05549578
50	22	0	0	90	36.1581920903955	36.241610738255	0	0	1	4	6	NaN	1	4	0.583423467416068	0	1	NaN	146	3	20	2	110	210	310	NaN	510	0.350189170334488	1	1	NaN	2163166.0224552	NaN	2163167.0058849	2163167.52239663
50	22	0	0	90	36.1581920903955	36.241610738255	17	0.566707783732563	2	3	6	NaN	1	5	0.583423467416068	0	1	NaN	147	3	21	2	120	220	320	NaN	520	0.547316095326096	1	1	NaN	2163168.6893694	NaN	2163169.6727772	2163170.1893396
50	22	0	0	90	36.1581920903955	36.241610738255	16	0.533372031748295	2	8	5	NaN	2	5	0.583423467416068	0	1	NaN	148	3	22	2	120	220	320	NaN	520	0.010404022410512	2	1	NaN	2163171.5396579	NaN	2163172.523056	2163173.03960998
50	22	0	0	90	36.1581920903955	36.241610738255	10	0.333357519842684	2	8	3	NaN	2	5	0.583423467416068	0	1	NaN	149	3	23	2	120	220	320	NaN	520	0.0103907226584852	2	1	NaN	2163173.856544	NaN	2163174.8399585	2163175.35650838
50	22	0	0	90	36.1581920903955	36.241610738255	17	0.566707783732563	2	6	1	NaN	1	3	0.583423467416068	0	1	NaN	150	3	24	2	120	220	320	NaN	520	0.0103890225291252	1	1	NaN	2163176.5567874	NaN	2163177.5402072	2163178.05677328
50	22	0	0	90	36.1581920903955	36.241610738255	15	0.500036279764026	2	11	6	NaN	2	5	0.583423467416068	0	1	NaN	151	3	25	2	120	220	320	NaN	520	0.427172222640365	2	1	NaN	2163178.8737416	NaN	2163179.8571101	2163180.37367048
50	22	0	0	90	36.1581920903955	36.241610738255	7	0.233350263889879	2	11	5	NaN	2	4	0.583423467416068	0	1	NaN	152	3	26	2	120	220	320	NaN	520	0.109393422491848	2	1	NaN	2163181.607325	NaN	2163182.5907737	2163183.10727468
50	22	0	0	90	36.1581920903955	36.241610738255	16	0.533372031748295	2	3	6	NaN	1	4	0.583423467416068	0	1	NaN	153	3	27	2	120	220	320	NaN	520	0.412655722815543	2	0	NaN	2163184.0242129	NaN	2163185.0076289	2163185.52417718
50	22	0	0	90	36.1581920903955	36.241610738255	18	0.600043535716832	2	10	5	NaN	2	3	0.583423467416068	0	1	NaN	154	3	28	2	120	220	320	NaN	520	0.0104082706384361	1	0	NaN	2163186.7411442	NaN	2163187.7245468	2163188.24110953
50	22	0	0	90	36.1581920903955	36.241610738255	0	0	1	6	1	NaN	1	3	0.583423467416068	0	1	NaN	155	3	29	2	110	210	310	NaN	510	0.21081357030198	1	1	NaN	2163189.0579266	NaN	2163190.0414531	2163190.55800973
50	22	0	0	90	36.1581920903955	36.241610738255	25	0.833393799606711	2	2	3	NaN	1	5	0.583423467416068	0	1	NaN	156	3	30	2	120	220	320	NaN	520	0.269047322683036	1	1	NaN	2163191.5916278	NaN	2163192.5750428	2163193.09158868
50	22	0	0	90	36.1581920903955	36.241610738255	7	0.233350263889879	2	6	1	NaN	1	3	0.583423467416068	0	1	NaN	157	3	31	2	120	220	320	NaN	520	0.357415322214365	1	1	NaN	2163194.1752131	NaN	2163195.1585996	2163195.67517418
50	22	0	0	90	36.1581920903955	36.241610738255	24	0.800058047622442	2	6	6	NaN	1	3	0.583423467416068	0	1	NaN	158	3	32	2	120	220	320	NaN	520	0.530559522565454	1	1	NaN	2163196.8421479	NaN	2163197.8255407	2163198.34210128
50	22	0	0	90	36.1581920903955	36.241610738255	6	0.200014511905611	2	7	4	NaN	2	5	0.583423467416068	0	1	NaN	159	3	33	2	120	220	320	NaN	520	0.0103916227817535	2	1	NaN	2163199.6756328	NaN	2163200.6591676	2163201.17571518
50	22	0	0	90	36.1581920903955	36.241610738255	10	0.333357519842684	2	12	1	NaN	2	3	0.583423467416068	0	1	NaN	160	3	34	2	120	220	320	NaN	520	0.0119412755593657	2	1	NaN	2163201.9926217	NaN	2163202.9760561	2163203.49260032
50	22	0	0	90	36.1581920903955	36.241610738255	7	0.233350263889879	2	12	6	NaN	2	3	0.583423467416068	0	1	NaN	161	3	35	2	120	220	320	NaN	520	0.325326522346586	2	1	NaN	2163204.359524	NaN	2163205.3429577	2163205.85950128
50	22	0	0	90	36.1581920903955	36.241610738255	11	0.366693271826953	2	1	4	NaN	1	4	0.583423467416068	0	1	NaN	162	3	36	2	120	220	320	NaN	520	0.0102838426828384	2	0	NaN	2163206.9931611	NaN	2163207.9765433	2163208.49309726
50	22	0	0	90	36.1581920903955	36.241610738255	14	0.466700527779758	2	8	6	NaN	2	4	0.583423467416068	0	1	NaN	163	3	37	2	120	220	320	NaN	520	0.0105023551732302	1	0	NaN	2163209.326729	NaN	2163210.3101176	2163210.82665114
50	22	0	0	90	36.1581920903955	36.241610738255	12	0.400029023811221	2	5	6	NaN	1	3	0.583423467416068	0	1	NaN	164	3	38	2	120	220	320	NaN	520	0.0104018226265907	1	1	NaN	2163211.6602886	NaN	2163212.6436803	2163213.16022728
50	22	0	0	90	36.1581920903955	36.241610738255	20	0.666715039685368	2	1	5	NaN	1	3	0.583423467416068	0	1	NaN	165	3	39	2	120	220	320	NaN	520	0.0104756224900484	2	0	NaN	2163213.977107	NaN	2163214.9605747	2163215.47714128
50	22	0	0	90	36.1581920903955	36.241610738255	14	0.466700527779758	2	11	1	NaN	2	3	0.583423467416068	0	1	NaN	166	3	40	2	120	220	320	NaN	520	0.0103970225900412	2	1	NaN	2163216.294073	NaN	2163217.2775295	2163217.79400888
50	22	0	0	90	36.1581920903955	36.241610738255	16	0.533372031748295	2	4	1	NaN	1	3	0.583423467416068	0	1	NaN	167	3	41	2	120	220	320	NaN	520	0.401872899848968	1	1	NaN	2163218.6108342	NaN	2163219.5943442	2163220.1109249
50	22	0	0	90	36.1581920903955	36.241610738255	18	0.600043535716832	2	11	6	NaN	2	4	0.583423467416068	0	1	NaN	168	3	42	2	120	220	320	NaN	520	0.010288942605257	2	1	NaN	2163221.3278922	NaN	2163222.3112956	2163222.82784666
50	22	0	0	90	36.1581920903955	36.241610738255	19	0.6333792877011	2	12	5	NaN	2	4	0.583423467416068	0	1	NaN	169	3	43	2	120	220	320	NaN	520	0.903397970367223	1	0	NaN	2163223.6614405	NaN	2163224.6448459	2163225.16139723
50	22	0	0	90	36.1581920903955	36.241610738255	11	0.366693271826953	2	8	4	NaN	2	5	0.583423467416068	0	1	NaN	170	3	44	2	120	220	320	NaN	520	0.758338722866029	1	0	NaN	2163226.8784343	NaN	2163227.8618377	2163228.37840738
50	22	0	0	90	36.1581920903955	36.241610738255	13	0.43336477579549	2	2	1	NaN	1	4	0.583423467416068	0	1	NaN	171	3	45	2	120	220	320	NaN	520	1.09579462232068	1	1	NaN	2163230.228855	NaN	2163231.212153	2163231.72872148
50	22	0	0	90	36.1581920903955	36.241610738255	6	0.200014511905611	2	1	4	NaN	1	4	0.583423467416068	0	1	NaN	172	3	46	2	120	220	320	NaN	520	0.4398003378883	2	0	NaN	2163233.629156	NaN	2163234.6124816	2163235.12904726
50	22	0	0	90	36.1581920903955	36.241610738255	25	0.833393799606711	2	1	6	NaN	1	3	0.583423467416068	0	1	NaN	173	3	47	2	120	220	320	NaN	520	0.497686622664332	2	0	NaN	2163236.3793725	NaN	2163237.3628134	2163237.87932588
50	22	0	0	90	36.1581920903955	36.241610738255	10	0.333357519842684	2	5	2	NaN	1	3	0.583423467416068	0	1	NaN	174	3	48	2	120	220	320	NaN	520	0.200697370339185	2	0	NaN	2163239.1963196	NaN	2163240.1797123	2163240.69626043
50	22	0	0	90	36.1581920903955	36.241610738255	10	0.333357519842684	2	7	4	NaN	2	4	0.583423467416068	0	1	NaN	175	3	49	2	120	220	320	NaN	520	0.355662122834474	2	1	NaN	2163241.7132282	NaN	2163242.6966314	2163243.21318488
50	22	0	0	90	36.1581920903955	36.241610738255	20	0.666715039685368	2	11	4	NaN	2	5	0.583423467416068	0	1	NaN	176	3	50	2	120	220	320	NaN	520	0.360465680249035	2	1	NaN	2163244.3800301	NaN	2163245.3635546	2163245.88011092
50	22	0	0	90	36.1581920903955	36.241610738255	15	0.500036279764026	2	6	1	NaN	1	3	0.583423467416068	0	1	NaN	177	3	51	2	120	220	320	NaN	520	0.0217579226009548	1	1	NaN	2163247.0471006	NaN	2163248.0304881	2163248.54703908
50	22	0	0	90	36.1581920903955	36.241610738255	25	0.833393799606711	2	8	6	NaN	2	5	0.583423467416068	0	1	NaN	178	3	52	2	120	220	320	NaN	520	0.242060822434723	2	1	NaN	2163249.7306629	NaN	2163250.7140832	2163251.23063398
50	22	0	0	90	36.1581920903955	36.241610738255	21	0.700050791669637	2	4	4	NaN	1	4	0.583423467416068	0	1	NaN	179	3	53	2	120	220	320	NaN	520	0.0102967899292707	2	0	NaN	2163252.2809324	NaN	2163253.2643372	2163253.78088341
50	22	0	0	90	36.1581920903955	36.241610738255	16	0.533372031748295	2	5	6	NaN	1	4	0.583423467416068	0	1	NaN	180	3	54	2	120	220	320	NaN	520	0.0103757753968239	2	0	NaN	2163254.6144958	NaN	2163255.5977815	2163256.11446622
50	22	0	0	90	36.1581920903955	36.241610738255	10	0.333357519842684	2	8	6	NaN	2	3	0.583423467416068	0	1	NaN	181	3	55	2	120	220	320	NaN	520	0.0104930708184838	2	1	NaN	2163256.948062	NaN	2163257.9314701	2163258.44802203
50	22	0	0	90	36.1581920903955	36.241610738255	10	0.333357519842684	2	4	6	NaN	1	5	0.583423467416068	0	1	NaN	182	3	56	2	120	220	320	NaN	520	1.63645247044042	1	1	NaN	2163259.4482229	NaN	2163260.4317312	2163260.94825983
50	22	0	0	90	36.1581920903955	36.241610738255	18	0.600043535716832	2	4	3	NaN	1	4	0.583423467416068	0	1	NaN	183	3	57	2	120	220	320	NaN	520	0.0103262853808701	1	1	NaN	2163263.3986842	NaN	2163264.3820805	2163264.89864011
50	22	0	0	90	36.1581920903955	36.241610738255	9	0.300021767858416	2	2	1	NaN	1	3	0.583423467416068	0	1	NaN	184	3	58	2	120	220	320	NaN	520	0.0104145705699921	1	1	NaN	2163265.7155788	NaN	2163266.6989703	2163267.21553003
50	22	0	0	90	36.1581920903955	36.241610738255	14	0.466700527779758	2	4	2	NaN	1	4	0.583423467416068	0	1	NaN	185	3	59	2	120	220	320	NaN	520	0.0104061225429177	1	1	NaN	2163268.415856	NaN	2163269.3992603	2163269.91581048
50	22	0	0	90	36.1581920903955	36.241610738255	21	0.700050791669637	2	2	1	NaN	1	3	0.583423467416068	0	1	NaN	186	3	60	2	120	220	320	NaN	520	0.335943122394383	1	1	NaN	2163270.7327564	NaN	2163271.7161379	2163272.23269978
50	22	0	0	90	36.1581920903955	36.241610738255	12	0.400029023811221	2	7	2	NaN	2	3	0.583423467416068	0	1	NaN	187	3	61	2	120	220	320	NaN	520	0.325980917550623	2	1	NaN	2163273.3830195	NaN	2163274.366408	2163274.88295558
50	22	0	0	90	36.1581920903955	36.241610738255	24	0.800058047622442	2	1	1	NaN	1	4	0.583423467416068	0	1	NaN	188	3	62	2	120	220	320	NaN	520	0.115537222940475	2	0	NaN	2163276.0332576	NaN	2163277.0166584	2163277.53322308
50	22	0	0	90	36.1581920903955	36.241610738255	11	0.366693271826953	2	11	4	NaN	2	5	0.583423467416068	0	1	NaN	189	3	63	2	120	220	320	NaN	520	0.306048389989883	2	1	NaN	2163278.4668453	NaN	2163279.4501849	2163279.96679851
50	22	0	0	90	36.1581920903955	36.241610738255	8	0.266686015874147	2	11	2	NaN	2	5	0.583423467416068	0	1	NaN	190	4	1	2	120	220	320	NaN	520	0.0442588324658573	2	1	NaN	2163289.3845252	NaN	2163290.367987	2163290.88453887
50	22	0	0	90	36.1581920903955	36.241610738255	11	0.366693271826953	2	6	5	NaN	1	3	0.583423467416068	0	1	NaN	191	4	2	2	120	220	320	NaN	520	0.0540575226768851	2	0	NaN	2163291.7346924	NaN	2163292.7182029	2163293.23476688
50	22	0	0	90	36.1581920903955	36.241610738255	24	0.800058047622442	2	2	4	NaN	1	5	0.583423467416068	0	1	NaN	192	4	3	2	120	220	320	NaN	520	0.34336721803993	2	0	NaN	2163294.1017173	NaN	2163295.0851067	2163295.60165798
50	22	0	0	90	36.1581920903955	36.241610738255	9	0.300021767858416	2	4	1	NaN	1	4	0.583423467416068	0	1	NaN	193	4	4	2	120	220	320	NaN	520	0.0104110706597567	1	1	NaN	2163296.7519725	NaN	2163297.73536	2163298.25191803
50	22	0	0	90	36.1581920903955	36.241610738255	13	0.43336477579549	2	2	3	NaN	1	4	0.583423467416068	0	1	NaN	194	4	5	2	120	220	320	NaN	520	0.232281142380089	1	1	NaN	2163299.0688538	NaN	2163300.0522559	2163300.56881696
50	22	0	0	90	36.1581920903955	36.241610738255	17	0.566707783732563	2	2	4	NaN	1	5	0.583423467416068	0	1	NaN	195	4	6	2	120	220	320	NaN	520	0.193677870556712	2	0	NaN	2163301.6191223	NaN	2163302.6025239	2163303.11906623
50	22	0	0	90	36.1581920903955	36.241610738255	13	0.43336477579549	2	4	3	NaN	1	5	0.583423467416068	0	1	NaN	196	4	7	2	120	220	320	NaN	520	0.133079732768238	2	0	NaN	2163304.1360292	NaN	2163305.1194622	2163305.63598217
50	22	0	0	90	36.1581920903955	36.241610738255	0	0	1	11	2	NaN	2	5	0.583423467416068	0	1	NaN	197	4	8	2	110	210	310	NaN	510	0.268242122605443	2	1	NaN	2163306.9529465	NaN	2163307.9363787	2163308.45293178
50	22	0	0	90	36.1581920903955	36.241610738255	10	0.333357519842684	2	4	3	NaN	1	3	0.583423467416068	0	1	NaN	198	4	9	2	120	220	320	NaN	520	0.0102687426842749	1	1	NaN	2163309.9198025	NaN	2163310.9033331	2163311.41989596
50	22	0	0	90	36.1581920903955	36.241610738255	22	0.733386543653905	2	3	6	NaN	1	3	0.583423467416068	0	1	NaN	199	4	10	2	120	220	320	NaN	520	0.199400622397661	2	0	NaN	2163312.2533738	NaN	2163313.236888	2163313.75344248
50	22	0	0	90	36.1581920903955	36.241610738255	12	0.400029023811221	2	2	3	NaN	1	4	0.583423467416068	0	1	NaN	200	4	11	2	120	220	320	NaN	520	0.326383822597563	1	1	NaN	2163315.0704067	NaN	2163316.0538413	2163316.57038408
50	22	0	0	90	36.1581920903955	36.241610738255	21	0.700050791669637	2	12	5	NaN	2	4	0.583423467416068	0	1	NaN	201	4	12	2	120	220	320	NaN	520	0.316689065191895	2	1	NaN	2163317.7040286	NaN	2163318.6874201	2163319.20397853
50	22	0	0	90	36.1581920903955	36.241610738255	16	0.533372031748295	2	11	6	NaN	2	5	0.583423467416068	0	1	NaN	202	4	13	2	120	220	320	NaN	520	0.0833707228302956	2	1	NaN	2163320.3375489	NaN	2163321.3210523	2163321.83757798
50	22	0	0	90	36.1581920903955	36.241610738255	19	0.6333792877011	2	3	2	NaN	1	3	0.583423467416068	0	1	NaN	203	4	14	2	120	220	320	NaN	520	0.368895122315735	1	1	NaN	2163322.7878415	NaN	2163323.7713095	2163324.28782248
50	22	0	0	90	36.1581920903955	36.241610738255	23	0.766722295638174	2	12	2	NaN	2	5	0.583423467416068	0	1	NaN	204	4	15	2	120	220	320	NaN	520	0.0104111703112721	2	1	NaN	2163325.4714535	NaN	2163326.4548661	2163326.97140653
50	22	0	0	90	36.1581920903955	36.241610738255	0	0	1	3	2	NaN	1	3	0.583423467416068	0	1	NaN	205	4	16	2	110	210	310	NaN	510	0.0518725230358541	2	0	NaN	2163328.1050469	NaN	2163329.0884525	2163329.60500158
50	22	0	0	90	36.1581920903955	36.241610738255	7	0.233350263889879	2	4	1	NaN	1	4	0.583423467416068	0	1	NaN	206	4	17	2	120	220	320	NaN	520	0.237215122673661	1	1	NaN	2163330.4719658	NaN	2163331.4553604	2163331.97190438
50	22	0	0	90	36.1581920903955	36.241610738255	14	0.466700527779758	2	5	2	NaN	1	4	0.583423467416068	0	1	NaN	207	4	18	2	120	220	320	NaN	520	0.198883070610464	1	1	NaN	2163333.022207	NaN	2163334.0056124	2163334.52216073
50	22	0	0	90	36.1581920903955	36.241610738255	0	0	1	10	4	NaN	2	5	0.583423467416068	0	1	NaN	208	4	19	2	110	210	310	NaN	510	0.0103955226950347	2	1	NaN	2163335.5390229	NaN	2163336.5225249	2163337.03908798
50	22	0	0	90	36.1581920903955	36.241610738255	0	0	1	6	4	NaN	1	5	0.583423467416068	0	1	NaN	209	4	20	2	110	210	310	NaN	510	0.010424017906189	1	1	NaN	2163338.1726106	NaN	2163339.1561003	2163339.67265398
50	22	0	0	90	36.1581920903955	36.241610738255	16	0.533372031748295	2	2	1	NaN	1	4	0.583423467416068	0	1	NaN	210	4	21	2	120	220	320	NaN	520	0.0104046706110239	1	1	NaN	2163340.5062888	NaN	2163341.4896798	2163342.00622063
50	22	0	0	90	36.1581920903955	36.241610738255	0	0	1	9	1	NaN	2	3	0.583423467416068	0	1	NaN	211	4	22	2	110	210	310	NaN	510	0.873752522747964	2	1	NaN	2163342.9231547	NaN	2163343.9065846	2163344.42313408
50	22	0	0	90	36.1581920903955	36.241610738255	24	0.800058047622442	2	11	5	NaN	2	4	0.583423467416068	0	1	NaN	212	4	23	2	120	220	320	NaN	520	0.745577322784811	2	1	NaN	2163346.3234524	NaN	2163347.3069216	2163347.82346398
50	22	0	0	90	36.1581920903955	36.241610738255	7	0.233350263889879	2	12	4	NaN	2	4	0.583423467416068	0	1	NaN	213	4	24	2	120	220	320	NaN	520	0.430379275232553	1	0	NaN	2163349.3904789	NaN	2163350.3738695	2163350.89042882
50	22	0	0	90	36.1581920903955	36.241610738255	8	0.266686015874147	2	12	1	NaN	2	5	0.583423467416068	0	1	NaN	214	4	25	2	120	220	320	NaN	520	0.160201422870159	1	0	NaN	2163352.3407526	NaN	2163353.3241755	2163353.84072748
50	22	0	0	90	36.1581920903955	36.241610738255	7	0.233350263889879	2	7	3	NaN	2	4	0.583423467416068	0	1	NaN	215	4	26	2	120	220	320	NaN	520	0.0364930704236031	2	1	NaN	2163354.824334	NaN	2163355.8077354	2163356.32429753
50	22	0	0	90	36.1581920903955	36.241610738255	6	0.200014511905611	2	11	1	NaN	2	4	0.583423467416068	0	1	NaN	216	4	27	2	120	220	320	NaN	520	0.0863667228259146	2	1	NaN	2163357.1745684	NaN	2163358.1579671	2163358.67453528
50	22	0	0	90	36.1581920903955	36.241610738255	16	0.533372031748295	2	12	3	NaN	2	3	0.583423467416068	0	1	NaN	217	4	28	2	120	220	320	NaN	520	0.0103925224393606	2	1	NaN	2163359.574715	NaN	2163360.5581929	2163361.07476328
50	22	0	0	90	36.1581920903955	36.241610738255	14	0.466700527779758	2	5	3	NaN	1	5	0.583423467416068	0	1	NaN	218	4	29	2	120	220	320	NaN	520	0.68939197063446	2	0	NaN	2163361.8918338	NaN	2163362.8751003	2163363.39166553
50	22	0	0	90	36.1581920903955	36.241610738255	8	0.266686015874147	2	6	5	NaN	1	5	0.583423467416068	0	1	NaN	219	4	30	2	120	220	320	NaN	520	0.888747028075159	2	0	NaN	2163364.8920113	NaN	2163365.875404	2163366.39195947
50	22	0	0	90	36.1581920903955	36.241610738255	13	0.43336477579549	2	6	2	NaN	1	4	0.583423467416068	0	1	NaN	220	4	31	2	120	220	320	NaN	520	0.0725892903283238	1	1	NaN	2163368.0923503	NaN	2163369.0757276	2163369.59228241
50	22	0	0	90	36.1581920903955	36.241610738255	14	0.466700527779758	2	10	1	NaN	2	5	0.583423467416068	0	1	NaN	221	4	32	2	120	220	320	NaN	520	0.353037422522902	2	1	NaN	2163370.4758859	NaN	2163371.4593197	2163371.97583928
50	22	0	0	90	36.1581920903955	36.241610738255	23	0.766722295638174	2	4	2	NaN	1	4	0.583423467416068	0	1	NaN	222	4	33	2	120	220	320	NaN	520	0.01039312267676	1	1	NaN	2163373.1427959	NaN	2163374.1262081	2163374.64277038
50	22	0	0	90	36.1581920903955	36.241610738255	24	0.800058047622442	2	8	1	NaN	2	3	0.583423467416068	0	1	NaN	223	4	34	2	120	220	320	NaN	520	0.0103860227391124	2	1	NaN	2163375.4763713	NaN	2163376.4597671	2163376.97633198
50	22	0	0	90	36.1581920903955	36.241610738255	20	0.666715039685368	2	12	4	NaN	2	5	0.583423467416068	0	1	NaN	224	4	35	2	120	220	320	NaN	520	0.267974022310227	2	1	NaN	2163377.793153	NaN	2163378.7766834	2163379.29322718
50	22	0	0	90	36.1581920903955	36.241610738255	23	0.766722295638174	2	1	4	NaN	1	3	0.583423467416068	0	1	NaN	225	4	36	2	120	220	320	NaN	520	0.0104056224226952	1	1	NaN	2163380.3768762	NaN	2163381.3602555	2163381.87681508
50	22	0	0	90	36.1581920903955	36.241610738255	23	0.766722295638174	2	12	5	NaN	2	3	0.583423467416068	0	1	NaN	226	4	37	2	120	220	320	NaN	520	0.290768422652036	2	1	NaN	2163382.8104294	NaN	2163383.7938215	2163384.31039028
50	22	0	0	90	36.1581920903955	36.241610738255	12	0.400029023811221	2	5	2	NaN	1	4	0.583423467416068	0	1	NaN	227	4	38	2	120	220	320	NaN	520	0.682220922317356	1	1	NaN	2163385.4106761	NaN	2163386.3940913	2163386.91064278
50	22	0	0	90	36.1581920903955	36.241610738255	23	0.766722295638174	2	11	2	NaN	2	5	0.583423467416068	0	1	NaN	228	4	39	2	120	220	320	NaN	520	0.36995031312108	2	1	NaN	2163388.4109721	NaN	2163389.3943919	2163389.91093929
50	22	0	0	90	36.1581920903955	36.241610738255	23	0.766722295638174	2	10	1	NaN	2	5	0.583423467416068	0	1	NaN	229	4	40	2	120	220	320	NaN	520	0.470360570587218	2	1	NaN	2163391.0944938	NaN	2163392.077963	2163392.59453353
50	22	0	0	90	36.1581920903955	36.241610738255	14	0.466700527779758	2	9	5	NaN	2	3	0.583423467416068	0	1	NaN	230	4	41	2	120	220	320	NaN	520	0.294712570495903	2	1	NaN	2163393.8782134	NaN	2163394.8615906	2163395.37813143
50	22	0	0	90	36.1581920903955	36.241610738255	9	0.300021767858416	2	10	4	NaN	2	3	0.583423467416068	0	1	NaN	231	4	42	2	120	220	320	NaN	520	0.309865375049412	2	1	NaN	2163396.4951126	NaN	2163397.4784944	2163397.99506852
50	22	0	0	90	36.1581920903955	36.241610738255	19	0.6333792877011	2	5	6	NaN	1	5	0.583423467416068	0	1	NaN	232	4	43	2	120	220	320	NaN	520	0.236104879993945	1	1	NaN	2163399.1286915	NaN	2163400.1121446	2163400.62866112
50	22	0	0	90	36.1581920903955	36.241610738255	0	0	1	9	6	NaN	2	4	0.583423467416068	0	1	NaN	233	4	44	2	110	210	310	NaN	510	0.358876722399145	2	1	NaN	2163401.6622863	NaN	2163402.6456743	2163403.16224298
50	22	0	0	90	36.1581920903955	36.241610738255	23	0.766722295638174	2	2	3	NaN	1	5	0.583423467416068	0	1	NaN	234	4	45	2	120	220	320	NaN	520	0.40361746493727	2	0	NaN	2163404.3291415	NaN	2163405.3125918	2163405.82917013
50	22	0	0	90	36.1581920903955	36.241610738255	9	0.300021767858416	2	1	3	NaN	1	4	0.583423467416068	0	1	NaN	235	4	46	2	120	220	320	NaN	520	0.0548274228349328	2	0	NaN	2163407.0460249	NaN	2163408.0295517	2163408.54610488
50	22	0	0	90	36.1581920903955	36.241610738255	15	0.500036279764026	2	3	5	NaN	1	3	0.583423467416068	0	1	NaN	236	4	47	2	120	220	320	NaN	520	0.440748922526836	1	1	NaN	2163409.5963833	NaN	2163410.5798082	2163411.09635718
50	22	0	0	90	36.1581920903955	36.241610738255	24	0.800058047622442	2	10	4	NaN	2	3	0.583423467416068	0	1	NaN	237	4	48	2	120	220	320	NaN	520	0.0104066706262529	2	1	NaN	2163412.3466838	NaN	2163413.3300695	2163413.84661893
50	22	0	0	90	36.1581920903955	36.241610738255	12	0.400029023811221	2	6	3	NaN	1	3	0.583423467416068	0	1	NaN	238	4	49	2	120	220	320	NaN	520	0.167235322296619	1	1	NaN	2163415.0135635	NaN	2163415.997019	2163416.51355798
50	22	0	0	90	36.1581920903955	36.241610738255	12	0.400029023811221	2	11	3	NaN	2	3	0.583423467416068	0	1	NaN	239	4	50	2	120	220	320	NaN	520	0.148000279907137	2	1	NaN	2163417.4971719	NaN	2163418.4805596	2163418.99713242
50	22	0	0	90	36.1581920903955	36.241610738255	15	0.500036279764026	2	9	4	NaN	2	5	0.583423467416068	0	1	NaN	240	4	51	2	120	220	320	NaN	520	0.129836522508413	1	0	NaN	2163419.9474015	NaN	2163420.9308134	2163421.44737628
50	22	0	0	90	36.1581920903955	36.241610738255	14	0.466700527779758	2	9	4	NaN	2	3	0.583423467416068	0	1	NaN	241	4	52	2	120	220	320	NaN	520	0.391162970568985	2	1	NaN	2163422.3976529	NaN	2163423.38104	2163423.89760593
50	22	0	0	90	36.1581920903955	36.241610738255	16	0.533372031748295	2	12	4	NaN	2	4	0.583423467416068	0	1	NaN	242	4	53	2	120	220	320	NaN	520	0.323263222817332	2	1	NaN	2163425.0979325	NaN	2163426.081336	2163426.59788268
50	22	0	0	90	36.1581920903955	36.241610738255	25	0.833393799606711	2	11	5	NaN	2	3	0.583423467416068	0	1	NaN	243	4	54	2	120	220	320	NaN	520	0.361718022730201	2	1	NaN	2163427.7315186	NaN	2163428.7148969	2163429.23146608
50	22	0	0	90	36.1581920903955	36.241610738255	22	0.733386543653905	2	8	3	NaN	2	5	0.583423467416068	0	1	NaN	244	4	55	2	120	220	320	NaN	520	0.285972122568637	1	0	NaN	2163430.415121	NaN	2163431.398506	2163431.91507048
50	22	0	0	90	36.1581920903955	36.241610738255	22	0.733386543653905	2	11	6	NaN	2	3	0.583423467416068	0	1	NaN	245	4	56	2	120	220	320	NaN	520	0.173544170334935	1	0	NaN	2163433.015369	NaN	2163433.9987621	2163434.51532593
50	22	0	0	90	36.1581920903955	36.241610738255	14	0.466700527779758	2	6	5	NaN	1	3	0.583423467416068	0	1	NaN	246	4	57	2	120	220	320	NaN	520	0.0901228226721287	1	1	NaN	2163435.4989571	NaN	2163436.4823477	2163436.99890098
50	22	0	0	90	36.1581920903955	36.241610738255	13	0.43336477579549	2	5	5	NaN	1	3	0.583423467416068	0	1	NaN	247	4	58	2	120	220	320	NaN	520	0.217761422507465	1	1	NaN	2163437.8992143	NaN	2163438.8826023	2163439.39913358
50	22	0	0	90	36.1581920903955	36.241610738255	21	0.700050791669637	2	4	4	NaN	1	4	0.583423467416068	0	1	NaN	248	4	59	2	120	220	320	NaN	520	0.0104046226479113	1	1	NaN	2163440.4327662	NaN	2163441.4161751	2163441.93271538
50	22	0	0	90	36.1581920903955	36.241610738255	8	0.266686015874147	2	6	3	NaN	1	5	0.583423467416068	0	1	NaN	249	4	60	2	120	220	320	NaN	520	0.0102994376793504	1	1	NaN	2163442.7495289	NaN	2163443.7330604	2163444.24961156
50	22	0	0	90	36.1581920903955	36.241610738255	20	0.666715039685368	2	11	5	NaN	2	3	0.583423467416068	0	1	NaN	250	4	61	2	120	220	320	NaN	520	0.0185406226664782	1	0	NaN	2163445.0664302	NaN	2163446.0499748	2163446.56650928
50	22	0	0	90	36.1581920903955	36.241610738255	20	0.666715039685368	2	6	2	NaN	1	3	0.583423467416068	0	1	NaN	251	4	62	2	120	220	320	NaN	520	0.0104020228609443	1	1	NaN	2163447.4001046	NaN	2163448.3835212	2163448.90007528
50	22	0	0	90	36.1581920903955	36.241610738255	12	0.400029023811221	2	2	2	NaN	1	3	0.583423467416068	0	1	NaN	252	4	63	2	120	220	320	NaN	520	0.160081122536212	1	1	NaN	2163449.717012	NaN	2163450.700312	2163451.21696468
50	22	0	0	90	36.1581920903955	36.241610738255	7	0.233350263889879	2	2	5	NaN	1	4	0.583423467416068	0	1	NaN	253	5	1	2	120	220	320	NaN	520	0.0104095223359764	1	1	NaN	2163456.2176227	NaN	2163457.2010644	2163457.71760568
50	22	0	0	90	36.1581920903955	36.241610738255	18	0.600043535716832	2	6	5	NaN	1	3	0.583423467416068	0	1	NaN	254	5	2	2	120	220	320	NaN	520	0.487076922785491	2	0	NaN	2163458.9178975	NaN	2163459.9013258	2163460.41786418
50	22	0	0	90	36.1581920903955	36.241610738255	11	0.366693271826953	2	10	5	NaN	2	4	0.583423467416068	0	1	NaN	255	5	3	2	120	220	320	NaN	520	0.223162770271301	1	0	NaN	2163461.7181974	NaN	2163462.7015782	2163463.21814693
50	22	0	0	90	36.1581920903955	36.241610738255	23	0.766722295638174	2	5	6	NaN	1	4	0.583423467416068	0	1	NaN	256	5	4	2	120	220	320	NaN	520	0.268788875080645	2	0	NaN	2163464.5684622	NaN	2163465.5518727	2163466.06842792
50	22	0	0	90	36.1581920903955	36.241610738255	24	0.800058047622442	2	8	5	NaN	2	3	0.583423467416068	0	1	NaN	257	5	5	2	120	220	320	NaN	520	0.300575070083141	2	1	NaN	2163467.1520589	NaN	2163468.1354631	2163468.65200653
50	22	0	0	90	36.1581920903955	36.241610738255	14	0.466700527779758	2	12	3	NaN	2	4	0.583423467416068	0	1	NaN	258	5	6	2	120	220	320	NaN	520	0.734009527601302	2	1	NaN	2163470.1189848	NaN	2163471.102419	2163471.61898307
50	22	0	0	90	36.1581920903955	36.241610738255	7	0.233350263889879	2	9	1	NaN	2	3	0.583423467416068	0	1	NaN	259	5	7	2	120	220	320	NaN	520	0.478208422660828	2	1	NaN	2163473.5026626	NaN	2163474.4860826	2163475.00264048
50	22	0	0	90	36.1581920903955	36.241610738255	25	0.833393799606711	2	7	4	NaN	2	3	0.583423467416068	0	1	NaN	260	5	8	2	120	220	320	NaN	520	0.182023322675377	2	1	NaN	2163476.3029658	NaN	2163477.2863555	2163477.80291438
50	22	0	0	90	36.1581920903955	36.241610738255	9	0.300021767858416	2	12	4	NaN	2	4	0.583423467416068	0	1	NaN	261	5	9	2	120	220	320	NaN	520	0.434153122361749	2	1	NaN	2163478.8031919	NaN	2163479.786669	2163480.30316008
50	22	0	0	90	36.1581920903955	36.241610738255	25	0.833393799606711	2	1	6	NaN	1	4	0.583423467416068	0	1	NaN	262	5	10	2	120	220	320	NaN	520	0.172515470068902	2	0	NaN	2163481.7368119	NaN	2163482.7202341	2163483.23677253
50	22	0	0	90	36.1581920903955	36.241610738255	10	0.333357519842684	2	2	5	NaN	1	5	0.583423467416068	0	1	NaN	263	5	11	2	120	220	320	NaN	520	0.360938322730362	2	0	NaN	2163484.2203977	NaN	2163485.2037799	2163485.72036288
50	22	0	0	90	36.1581920903955	36.241610738255	24	0.800058047622442	2	1	3	NaN	1	3	0.583423467416068	0	1	NaN	264	5	12	2	120	220	320	NaN	520	0.187986322678626	2	0	NaN	2163486.9206269	NaN	2163487.9040547	2163488.42062348
50	22	0	0	90	36.1581920903955	36.241610738255	22	0.733386543653905	2	4	1	NaN	1	3	0.583423467416068	0	1	NaN	265	5	13	2	120	220	320	NaN	520	0.0103887226432562	1	1	NaN	2163489.4209392	NaN	2163490.4043152	2163490.92087858
50	22	0	0	90	36.1581920903955	36.241610738255	11	0.366693271826953	2	11	4	NaN	2	5	0.583423467416068	0	1	NaN	266	5	14	2	120	220	320	NaN	520	0.658610322512686	2	1	NaN	2163491.7543505	NaN	2163492.7378783	2163493.25442578
50	22	0	0	90	36.1581920903955	36.241610738255	14	0.466700527779758	2	10	6	NaN	2	5	0.583423467416068	0	1	NaN	267	5	15	2	120	220	320	NaN	520	0.605800722260028	2	1	NaN	2163495.0714472	NaN	2163496.05488	2163496.57142748
50	22	0	0	90	36.1581920903955	36.241610738255	18	0.600043535716832	2	7	2	NaN	2	4	0.583423467416068	0	1	NaN	268	5	16	2	120	220	320	NaN	520	0.417022722773254	2	1	NaN	2163497.988438	NaN	2163498.9718192	2163499.48837328
50	22	0	0	90	36.1581920903955	36.241610738255	25	0.833393799606711	2	10	3	NaN	2	4	0.583423467416068	0	1	NaN	269	5	17	2	120	220	320	NaN	520	0.29113052226603	1	0	NaN	2163500.7220302	NaN	2163501.7054485	2163502.22197518
50	22	0	0	90	36.1581920903955	36.241610738255	17	0.566707783732563	2	6	3	NaN	1	4	0.583423467416068	0	1	NaN	270	5	18	2	120	220	320	NaN	520	0.0428836229257286	1	1	NaN	2163503.3222903	NaN	2163504.3057415	2163504.82223958
50	22	0	0	90	36.1581920903955	36.241610738255	25	0.833393799606711	2	7	6	NaN	2	5	0.583423467416068	0	1	NaN	271	5	19	2	120	220	320	NaN	520	0.0103304325602949	2	1	NaN	2163505.689176	NaN	2163506.6725876	2163507.18912987
50	22	0	0	90	36.1581920903955	36.241610738255	11	0.366693271826953	2	4	4	NaN	1	4	0.583423467416068	0	1	NaN	272	5	20	2	120	220	320	NaN	520	0.645572070498019	1	1	NaN	2163508.03938	NaN	2163509.022816	2163509.53938733
50	22	0	0	90	36.1581920903955	36.241610738255	18	0.600043535716832	2	3	4	NaN	1	5	0.583423467416068	0	1	NaN	273	5	21	2	120	220	320	NaN	520	0.279051970690489	2	0	NaN	2163510.9896956	NaN	2163511.9730962	2163512.48964933
50	22	0	0	90	36.1581920903955	36.241610738255	16	0.533372031748295	2	7	2	NaN	2	3	0.583423467416068	0	1	NaN	274	5	22	2	120	220	320	NaN	520	0.0103957229293883	1	0	NaN	2163513.5899644	NaN	2163514.5733399	2163515.08990518
50	22	0	0	90	36.1581920903955	36.241610738255	19	0.6333792877011	2	11	2	NaN	2	4	0.583423467416068	0	1	NaN	275	5	23	2	120	220	320	NaN	520	0.0103944223374128	2	1	NaN	2163516.2569259	NaN	2163517.2402817	2163517.75684508
50	22	0	0	90	36.1581920903955	36.241610738255	22	0.733386543653905	2	7	6	NaN	2	3	0.583423467416068	0	1	NaN	276	5	24	2	120	220	320	NaN	520	0.343228022567928	2	1	NaN	2163518.5737736	NaN	2163519.5571702	2163520.07373198
50	22	0	0	90	36.1581920903955	36.241610738255	24	0.800058047622442	2	10	3	NaN	2	3	0.583423467416068	0	1	NaN	277	5	25	2	120	220	320	NaN	520	0.42940192297101	2	1	NaN	2163521.2240227	NaN	2163522.2074328	2163522.72399568
50	22	0	0	90	36.1581920903955	36.241610738255	6	0.200014511905611	2	6	3	NaN	1	4	0.583423467416068	0	1	NaN	278	5	26	2	120	220	320	NaN	520	0.0394818224012852	1	1	NaN	2163523.9576404	NaN	2163524.9410647	2163525.45759798
50	22	0	0	90	36.1581920903955	36.241610738255	8	0.266686015874147	2	1	5	NaN	1	5	0.583423467416068	0	1	NaN	279	5	27	2	120	220	320	NaN	520	0.0721684703603387	1	1	NaN	2163526.3245728	NaN	2163527.3079459	2163527.82448853
50	22	0	0	90	36.1581920903955	36.241610738255	10	0.333357519842684	2	6	4	NaN	1	4	0.583423467416068	0	1	NaN	280	5	28	2	120	220	320	NaN	520	0.273015422746539	1	1	NaN	2163528.7081036	NaN	2163529.6915299	2163530.20806518
50	22	0	0	90	36.1581920903955	36.241610738255	10	0.333357519842684	2	1	5	NaN	1	3	0.583423467416068	0	1	NaN	281	5	29	2	120	220	320	NaN	520	0.64127604290843	2	0	NaN	2163531.2916973	NaN	2163532.2750897	2163532.79165036
50	22	0	0	90	36.1581920903955	36.241610738255	10	0.333357519842684	2	11	6	NaN	2	3	0.583423467416068	0	1	NaN	282	5	30	2	120	220	320	NaN	520	0.275084822438657	2	1	NaN	2163534.2419924	NaN	2163535.225393	2163535.74195458
50	22	0	0	90	36.1581920903955	36.241610738255	8	0.266686015874147	2	2	1	NaN	1	3	0.583423467416068	0	1	NaN	283	5	31	2	120	220	320	NaN	520	0.0103925229050219	1	1	NaN	2163536.8255885	NaN	2163537.8089839	2163538.32553158
50	22	0	0	90	36.1581920903955	36.241610738255	22	0.733386543653905	2	8	2	NaN	2	4	0.583423467416068	0	1	NaN	284	5	32	2	120	220	320	NaN	520	0.478615570347756	2	1	NaN	2163539.1423475	NaN	2163540.1258355	2163540.64241673
50	22	0	0	90	36.1581920903955	36.241610738255	15	0.500036279764026	2	8	6	NaN	2	5	0.583423467416068	0	1	NaN	285	5	33	2	120	220	320	NaN	520	0.230882670730352	2	1	NaN	2163541.9259623	NaN	2163542.9094712	2163543.42602243
50	22	0	0	90	36.1581920903955	36.241610738255	10	0.333357519842684	2	9	3	NaN	2	5	0.583423467416068	0	1	NaN	286	5	34	2	120	220	320	NaN	520	0.376821055077016	2	1	NaN	2163544.4763548	NaN	2163545.4597075	2163545.97627644
50	22	0	0	90	36.1581920903955	36.241610738255	19	0.6333792877011	2	10	1	NaN	2	3	0.583423467416068	0	1	NaN	287	5	35	2	120	220	320	NaN	520	0.277839722577482	2	1	NaN	2163547.3432385	NaN	2163548.3266865	2163548.84323398
50	22	0	0	90	36.1581920903955	36.241610738255	0	0	1	5	4	NaN	1	3	0.583423467416068	0	1	NaN	288	5	36	2	110	210	310	NaN	510	0.0103896227665246	1	1	NaN	2163549.9268716	NaN	2163550.9102638	2163551.42682878
50	22	0	0	90	36.1581920903955	36.241610738255	23	0.766722295638174	2	8	5	NaN	2	4	0.583423467416068	0	1	NaN	289	5	37	2	120	220	320	NaN	520	0.0104206702671945	1	0	NaN	2163552.2437571	NaN	2163553.2271409	2163553.74371463
50	22	0	0	90	36.1581920903955	36.241610738255	12	0.400029023811221	2	1	1	NaN	1	4	0.583423467416068	0	1	NaN	290	5	38	2	120	220	320	NaN	520	0.0103925229050219	1	1	NaN	2163554.5606522	NaN	2163555.5440317	2163556.06060598
50	22	0	0	90	36.1581920903955	36.241610738255	19	0.6333792877011	2	6	2	NaN	1	3	0.583423467416068	0	1	NaN	291	5	39	2	120	220	320	NaN	520	0.407655227929354	1	1	NaN	2163557.2775571	NaN	2163558.2609989	2163558.77754637
50	22	0	0	90	36.1581920903955	36.241610738255	16	0.533372031748295	2	10	2	NaN	2	5	0.583423467416068	0	1	NaN	292	5	40	2	120	220	320	NaN	520	0.642698370385915	2	1	NaN	2163559.9945111	NaN	2163560.9779158	2163561.49448403
50	22	0	0	90	36.1581920903955	36.241610738255	13	0.43336477579549	2	11	1	NaN	2	4	0.583423467416068	0	1	NaN	293	5	41	2	120	220	320	NaN	520	0.476286570541561	2	1	NaN	2163562.9448322	NaN	2163563.9282051	2163564.44475623
50	22	0	0	90	36.1581920903955	36.241610738255	25	0.833393799606711	2	11	5	NaN	2	4	0.583423467416068	0	1	NaN	294	5	42	2	120	220	320	NaN	520	0.0680773076601326	2	1	NaN	2163565.7451676	NaN	2163566.72846	2163567.24504069
50	22	0	0	90	36.1581920903955	36.241610738255	0	0	1	12	1	NaN	2	4	0.583423467416068	0	1	NaN	295	5	43	2	110	210	310	NaN	510	0.0103905224241316	2	1	NaN	2163568.1285239	NaN	2163569.1120541	2163569.62860548
50	22	0	0	90	36.1581920903955	36.241610738255	19	0.6333792877011	2	11	1	NaN	2	5	0.583423467416068	0	1	NaN	296	5	44	2	120	220	320	NaN	520	0.599980022292584	2	1	NaN	2163570.4454157	NaN	2163571.4289469	2163571.94550678
50	22	0	0	90	36.1581920903955	36.241610738255	19	0.6333792877011	2	8	2	NaN	2	3	0.583423467416068	0	1	NaN	297	5	45	2	120	220	320	NaN	520	0.410747022368014	2	1	NaN	2163573.3625144	NaN	2163574.3458989	2163574.86245238
50	22	0	0	90	36.1581920903955	36.241610738255	24	0.800058047622442	2	11	6	NaN	2	4	0.583423467416068	0	1	NaN	298	5	46	2	120	220	320	NaN	520	0.333119670394808	2	1	NaN	2163576.0961003	NaN	2163577.0793995	2163577.59605133
50	22	0	0	90	36.1581920903955	36.241610738255	16	0.533372031748295	2	3	1	NaN	1	3	0.583423467416068	0	1	NaN	299	5	47	2	120	220	320	NaN	520	0.0102801900357008	2	0	NaN	2163578.7297176	NaN	2163579.7131019	2163580.22965571
50	22	0	0	90	36.1581920903955	36.241610738255	7	0.233350263889879	2	10	6	NaN	2	3	0.583423467416068	0	1	NaN	300	5	48	2	120	220	320	NaN	520	0.279016975313425	1	0	NaN	2163581.0465976	NaN	2163582.029976	2163582.54654152
50	22	0	0	90	36.1581920903955	36.241610738255	20	0.666715039685368	2	4	2	NaN	1	5	0.583423467416068	0	1	NaN	301	5	49	2	120	220	320	NaN	520	0.238298722542822	1	1	NaN	2163583.6468503	NaN	2163584.6302556	2163585.14679358
50	22	0	0	90	36.1581920903955	36.241610738255	19	0.6333792877011	2	6	2	NaN	1	4	0.583423467416068	0	1	NaN	302	5	50	2	120	220	320	NaN	520	0.60830492246896	1	1	NaN	2163586.1971	NaN	2163587.1804923	2163587.69704968
50	22	0	0	90	36.1581920903955	36.241610738255	13	0.43336477579549	2	7	2	NaN	2	4	0.583423467416068	0	1	NaN	303	5	51	2	120	220	320	NaN	520	0.0104069225490093	2	1	NaN	2163589.1140657	NaN	2163590.0974566	2163590.61399958
50	22	0	0	90	36.1581920903955	36.241610738255	20	0.666715039685368	2	6	6	NaN	1	5	0.583423467416068	0	1	NaN	304	5	52	2	120	220	320	NaN	520	0.0102721424773335	1	1	NaN	2163591.4309425	NaN	2163592.4143405	2163592.93090896
50	22	0	0	90	36.1581920903955	36.241610738255	13	0.43336477579549	2	12	5	NaN	2	3	0.583423467416068	0	1	NaN	305	5	53	2	120	220	320	NaN	520	0.457374622579664	1	0	NaN	2163593.747837	NaN	2163594.7312915	2163595.24779918
50	22	0	0	90	36.1581920903955	36.241610738255	13	0.43336477579549	2	8	4	NaN	2	5	0.583423467416068	0	1	NaN	306	5	54	2	120	220	320	NaN	520	0.602397022768855	2	1	NaN	2163596.514775	NaN	2163597.49819	2163598.01475428
50	22	0	0	90	36.1581920903955	36.241610738255	15	0.500036279764026	2	6	4	NaN	1	5	0.583423467416068	0	1	NaN	307	5	55	2	120	220	320	NaN	520	0.453424770385027	1	1	NaN	2163599.4317359	NaN	2163600.4151353	2163600.93168173
50	22	0	0	90	36.1581920903955	36.241610738255	24	0.800058047622442	2	12	3	NaN	2	3	0.583423467416068	0	1	NaN	308	5	56	2	120	220	320	NaN	520	0.57494627032429	1	0	NaN	2163602.1986741	NaN	2163603.1820604	2163603.69861913
50	22	0	0	90	36.1581920903955	36.241610738255	20	0.666715039685368	2	10	2	NaN	2	4	0.583423467416068	0	1	NaN	309	5	57	2	120	220	320	NaN	520	0.507181470282376	1	0	NaN	2163605.0823008	NaN	2163606.0656888	2163606.58223923
50	22	0	0	90	36.1581920903955	36.241610738255	11	0.366693271826953	2	12	1	NaN	2	4	0.583423467416068	0	1	NaN	310	5	58	2	120	220	320	NaN	520	0.54599832277745	1	0	NaN	2163607.8992352	NaN	2163608.8826229	2163609.39917998
50	22	0	0	90	36.1581920903955	36.241610738255	19	0.6333792877011	2	9	4	NaN	2	5	0.583423467416068	0	1	NaN	311	5	59	2	120	220	320	NaN	520	0.399314622394741	1	0	NaN	2163610.766185	NaN	2163611.74958	2163612.26613868
50	22	0	0	90	36.1581920903955	36.241610738255	7	0.233350263889879	2	3	6	NaN	1	3	0.583423467416068	0	1	NaN	312	5	60	2	120	220	320	NaN	520	0.0982803702354431	2	0	NaN	2163613.483109	NaN	2163614.4665018	2163614.98305943
50	22	0	0	90	36.1581920903955	36.241610738255	6	0.200014511905611	2	2	5	NaN	1	5	0.583423467416068	0	1	NaN	313	5	61	2	120	220	320	NaN	520	0.239163275342435	1	1	NaN	2163615.9499592	NaN	2163616.9334198	2163617.44997242
50	22	0	0	90	36.1581920903955	36.241610738255	0	0	1	7	3	NaN	2	4	0.583423467416068	0	1	NaN	314	5	62	2	110	210	310	NaN	510	0.337300322484225	2	1	NaN	2163618.50014	NaN	2163619.4836735	2163620.00022028
50	22	0	0	90	36.1581920903955	36.241610738255	23	0.766722295638174	2	1	2	NaN	1	5	0.583423467416068	0	1	NaN	315	5	63	2	120	220	320	NaN	520	0.398637022823095	2	0	NaN	2163621.1505193	NaN	2163622.1339263	2163622.65049218
50	22	0	0	90	36.1581920903955	36.241610738255	14	0.466700527779758	2	2	6	NaN	1	5	0.583423467416068	0	1	NaN	316	6	1	2	120	220	320	NaN	520	0.0103912227787077	1	1	NaN	2163628.3178931	NaN	2163629.3013078	2163629.81785938
50	22	0	0	90	36.1581920903955	36.241610738255	25	0.833393799606711	2	9	5	NaN	2	3	0.583423467416068	0	1	NaN	317	6	2	2	120	220	320	NaN	520	0.0103591801598668	1	0	NaN	2163630.9848133	NaN	2163631.9682379	2163632.48479212
50	22	0	0	90	36.1581920903955	36.241610738255	13	0.43336477579549	2	5	1	NaN	1	5	0.583423467416068	0	1	NaN	318	6	3	2	120	220	320	NaN	520	0.101445895154029	1	1	NaN	2163633.3517085	NaN	2163634.3351511	2163634.8516988
50	22	0	0	90	36.1581920903955	36.241610738255	25	0.833393799606711	2	3	1	NaN	1	3	0.583423467416068	0	1	NaN	319	6	4	2	120	220	320	NaN	520	0.0104527226649225	2	0	NaN	2163635.7686462	NaN	2163636.7520351	2163637.26859178
50	22	0	0	90	36.1581920903955	36.241610738255	6	0.200014511905611	2	7	5	NaN	2	5	0.583423467416068	0	1	NaN	320	6	5	2	120	220	320	NaN	520	0.0104027702473104	2	1	NaN	2163638.0855232	NaN	2163639.0689311	2163639.58547913
50	22	0	0	90	36.1581920903955	36.241610738255	15	0.500036279764026	2	10	4	NaN	2	4	0.583423467416068	0	1	NaN	321	6	6	2	120	220	320	NaN	520	0.474579375237226	2	1	NaN	2163640.419099	NaN	2163641.4024869	2163641.91905592
50	22	0	0	90	36.1581920903955	36.241610738255	21	0.700050791669637	2	5	3	NaN	1	3	0.583423467416068	0	1	NaN	322	6	7	2	120	220	320	NaN	520	0.114651970565319	1	1	NaN	2163643.2026432	NaN	2163644.1861095	2163644.70264703
50	22	0	0	90	36.1581920903955	36.241610738255	11	0.366693271826953	2	9	2	NaN	2	4	0.583423467416068	0	1	NaN	323	6	8	2	120	220	320	NaN	520	0.474604822695255	2	1	NaN	2163646.0029998	NaN	2163646.9863737	2163647.50293488
50	22	0	0	90	36.1581920903955	36.241610738255	15	0.500036279764026	2	1	4	NaN	1	4	0.583423467416068	0	1	NaN	324	6	9	2	120	220	320	NaN	520	0.0103947226889431	2	0	NaN	2163648.7865797	NaN	2163649.7699915	2163650.28653978
50	22	0	0	90	36.1581920903955	36.241610738255	23	0.766722295638174	2	7	3	NaN	2	4	0.583423467416068	0	1	NaN	325	6	10	2	120	220	320	NaN	520	0.0103789754211903	2	1	NaN	2163651.10345	NaN	2163652.0868688	2163652.60343552
50	22	0	0	90	36.1581920903955	36.241610738255	20	0.666715039685368	2	2	4	NaN	1	3	0.583423467416068	0	1	NaN	326	6	11	2	120	220	320	NaN	520	0.736843622289598	1	1	NaN	2163653.4203803	NaN	2163654.4037746	2163654.92032868
50	22	0	0	90	36.1581920903955	36.241610738255	19	0.6333792877011	2	10	3	NaN	2	5	0.583423467416068	0	1	NaN	327	6	12	2	120	220	320	NaN	520	0.158629979938269	1	0	NaN	2163656.8706983	NaN	2163657.8541121	2163658.37068942
50	22	0	0	90	36.1581920903955	36.241610738255	7	0.233350263889879	2	8	3	NaN	2	3	0.583423467416068	0	1	NaN	328	6	13	2	120	220	320	NaN	520	0.307944317813963	2	1	NaN	2163659.3374792	NaN	2163660.3210297	2163660.83760448
50	22	0	0	90	36.1581920903955	36.241610738255	10	0.333357519842684	2	11	2	NaN	2	3	0.583423467416068	0	1	NaN	329	6	14	2	120	220	320	NaN	520	0.219021770637482	2	1	NaN	2163661.9545479	NaN	2163662.937952	2163663.45449463
50	22	0	0	90	36.1581920903955	36.241610738255	15	0.500036279764026	2	4	6	NaN	1	3	0.583423467416068	0	1	NaN	330	6	15	2	120	220	320	NaN	520	0.501432722434402	1	1	NaN	2163664.4881353	NaN	2163665.4715275	2163665.98810208
50	22	0	0	90	36.1581920903955	36.241610738255	23	0.766722295638174	2	2	4	NaN	1	3	0.583423467416068	0	1	NaN	331	6	16	2	120	220	320	NaN	520	0.0104226707480848	1	1	NaN	2163667.3050831	NaN	2163668.2884831	2163668.80501743
50	22	0	0	90	36.1581920903955	36.241610738255	20	0.666715039685368	2	3	1	NaN	1	4	0.583423467416068	0	1	NaN	332	6	17	2	120	220	320	NaN	520	0.0872944225557148	1	1	NaN	2163669.6219785	NaN	2163670.605359	2163671.12192538
50	22	0	0	90	36.1581920903955	36.241610738255	9	0.300021767858416	2	12	1	NaN	2	3	0.583423467416068	0	1	NaN	333	6	18	2	120	220	320	NaN	520	0.010395722463727	2	1	NaN	2163672.0222086	NaN	2163673.0056062	2163673.52215838
50	22	0	0	90	36.1581920903955	36.241610738255	21	0.700050791669637	2	10	3	NaN	2	4	0.583423467416068	0	1	NaN	334	6	19	2	120	220	320	NaN	520	0.194286522921175	1	0	NaN	2163674.3391103	NaN	2163675.3225425	2163675.83905748
50	22	0	0	90	36.1581920903955	36.241610738255	6	0.200014511905611	2	3	1	NaN	1	3	0.583423467416068	0	1	NaN	335	6	20	2	120	220	320	NaN	520	0.737361422739923	2	0	NaN	2163676.9560029	NaN	2163677.9394254	2163678.45597778
50	22	0	0	90	36.1581920903955	36.241610738255	18	0.600043535716832	2	3	4	NaN	1	5	0.583423467416068	0	1	NaN	336	6	21	2	120	220	320	NaN	520	0.150424022693187	2	0	NaN	2163680.0230212	NaN	2163681.0063961	2163681.52294448
50	22	0	0	90	36.1581920903955	36.241610738255	24	0.800058047622442	2	3	6	NaN	1	3	0.583423467416068	0	1	NaN	337	6	22	2	120	220	320	NaN	520	0.245350022800267	1	1	NaN	2163682.8399181	NaN	2163683.8233248	2163684.33988058
50	22	0	0	90	36.1581920903955	36.241610738255	15	0.500036279764026	2	7	2	NaN	2	4	0.583423467416068	0	1	NaN	338	6	23	2	120	220	320	NaN	520	0.175153422635049	2	1	NaN	2163685.3900629	NaN	2163686.3735836	2163686.89014188
50	22	0	0	90	36.1581920903955	36.241610738255	15	0.500036279764026	2	3	2	NaN	1	3	0.583423467416068	0	1	NaN	339	6	24	2	120	220	320	NaN	520	0.139608670491725	1	1	NaN	2163687.8737657	NaN	2163688.8571551	2163689.37370733
50	22	0	0	90	36.1581920903955	36.241610738255	22	0.733386543653905	2	6	1	NaN	1	4	0.583423467416068	0	1	NaN	340	6	25	2	120	220	320	NaN	520	0.345552970189601	1	1	NaN	2163690.3238765	NaN	2163691.3074011	2163691.82395263
50	22	0	0	90	36.1581920903955	36.241610738255	12	0.400029023811221	2	12	5	NaN	2	3	0.583423467416068	0	1	NaN	341	6	26	2	120	220	320	NaN	520	0.279012422543019	1	0	NaN	2163692.9742446	NaN	2163693.9576624	2163694.47422248
50	22	0	0	90	36.1581920903955	36.241610738255	9	0.300021767858416	2	7	5	NaN	2	3	0.583423467416068	0	1	NaN	342	6	27	2	120	220	320	NaN	520	0.0104154706932604	2	1	NaN	2163696.0078707	NaN	2163696.9913055	2163697.50783963
50	22	0	0	90	36.1581920903955	36.241610738255	14	0.466700527779758	2	6	5	NaN	1	3	0.583423467416068	0	1	NaN	343	6	28	2	120	220	320	NaN	520	0.0103937229141593	1	1	NaN	2163698.6914721	NaN	2163699.674884	2163700.19145018
50	22	0	0	90	36.1581920903955	36.241610738255	12	0.400029023811221	2	10	6	NaN	2	5	0.583423467416068	0	1	NaN	344	6	29	2	120	220	320	NaN	520	0.0103885224089026	2	1	NaN	2163701.008377	NaN	2163701.9917818	2163702.50833938
50	22	0	0	90	36.1581920903955	36.241610738255	21	0.700050791669637	2	5	2	NaN	1	5	0.583423467416068	0	1	NaN	345	6	30	2	120	220	320	NaN	520	0.465581822674721	2	0	NaN	2163703.6919587	NaN	2163704.6753967	2163705.19193148
50	22	0	0	90	36.1581920903955	36.241610738255	22	0.733386543653905	2	1	1	NaN	1	4	0.583423467416068	0	1	NaN	346	6	31	2	120	220	320	NaN	520	0.490327585022897	2	0	NaN	2163706.4588992	NaN	2163707.4422216	2163707.95888401
50	22	0	0	90	36.1581920903955	36.241610738255	9	0.300021767858416	2	9	4	NaN	2	3	0.583423467416068	0	1	NaN	347	6	32	2	120	220	320	NaN	520	0.602259323000908	2	1	NaN	2163709.2591856	NaN	2163710.2426115	2163710.75914818
50	22	0	0	90	36.1581920903955	36.241610738255	15	0.500036279764026	2	8	4	NaN	2	5	0.583423467416068	0	1	NaN	348	6	33	2	120	220	320	NaN	520	0.25338797038421	2	1	NaN	2163712.1761432	NaN	2163713.1595614	2163713.67609553
50	22	0	0	90	36.1581920903955	36.241610738255	0	0	1	12	6	NaN	2	4	0.583423467416068	0	1	NaN	349	6	34	2	110	210	310	NaN	510	0.0104150706902146	2	1	NaN	2163714.7430719	NaN	2163715.7264754	2163716.24301973
50	22	0	0	90	36.1581920903955	36.241610738255	8	0.266686015874147	2	10	5	NaN	2	4	0.583423467416068	0	1	NaN	350	6	35	2	120	220	320	NaN	520	0.656648742966354	2	1	NaN	2163717.0765183	NaN	2163718.060062	2163718.57659346
50	22	0	0	90	36.1581920903955	36.241610738255	24	0.800058047622442	2	2	2	NaN	1	3	0.583423467416068	0	1	NaN	351	6	36	2	120	220	320	NaN	520	0.0103920227847993	1	1	NaN	2163720.0435996	NaN	2163721.0269812	2163721.54354538
50	22	0	0	90	36.1581920903955	36.241610738255	0	0	1	7	1	NaN	2	3	0.583423467416068	0	1	NaN	352	6	37	2	110	210	310	NaN	510	0.397078270558268	2	1	NaN	2163722.3605117	NaN	2163723.3438761	2163723.86043353
50	22	0	0	90	36.1581920903955	36.241610738255	8	0.266686015874147	2	1	3	NaN	1	4	0.583423467416068	0	1	NaN	353	6	38	2	120	220	320	NaN	520	0.424470018129796	2	0	NaN	2163725.0606326	NaN	2163726.0441388	2163726.56069548
50	22	0	0	90	36.1581920903955	36.241610738255	10	0.333357519842684	2	3	6	NaN	1	3	0.583423467416068	0	1	NaN	354	6	39	2	120	220	320	NaN	520	0.0270759705454111	1	1	NaN	2163727.7943346	NaN	2163728.7777732	2163729.29430073
50	22	0	0	90	36.1581920903955	36.241610738255	9	0.300021767858416	2	7	1	NaN	2	3	0.583423467416068	0	1	NaN	355	6	40	2	120	220	320	NaN	520	0.247733770404011	2	1	NaN	2163730.4779237	NaN	2163731.4613634	2163731.97790623
50	22	0	0	90	36.1581920903955	36.241610738255	17	0.566707783732563	2	3	3	NaN	1	3	0.583423467416068	0	1	NaN	356	6	41	2	120	220	320	NaN	520	0.0725156702101231	1	1	NaN	2163733.0448923	NaN	2163734.0283041	2163734.54481443
50	22	0	0	90	36.1581920903955	36.241610738255	23	0.766722295638174	2	3	4	NaN	1	3	0.583423467416068	0	1	NaN	357	6	42	2	120	220	320	NaN	520	0.369123222772032	2	0	NaN	2163735.4284302	NaN	2163736.41184	2163736.92838498
50	22	0	0	90	36.1581920903955	36.241610738255	7	0.233350263889879	2	8	3	NaN	2	5	0.583423467416068	0	1	NaN	358	6	43	2	120	220	320	NaN	520	0.0104006226174533	2	1	NaN	2163738.1787061	NaN	2163739.1621117	2163739.67866208
50	22	0	0	90	36.1581920903955	36.241610738255	9	0.300021767858416	2	3	3	NaN	1	4	0.583423467416068	0	1	NaN	359	6	44	2	120	220	320	NaN	520	0.0104010226204991	1	1	NaN	2163740.4955665	NaN	2163741.4790074	2163741.99554838
50	22	0	0	90	36.1581920903955	36.241610738255	9	0.300021767858416	2	2	4	NaN	1	3	0.583423467416068	0	1	NaN	360	6	45	2	120	220	320	NaN	520	0.0103906225413084	2	0	NaN	2163742.8125136	NaN	2163743.7958949	2163744.31245538
50	22	0	0	90	36.1581920903955	36.241610738255	9	0.300021767858416	2	4	5	NaN	1	5	0.583423467416068	0	1	NaN	361	6	46	2	120	220	320	NaN	520	0.572901622857898	1	1	NaN	2163745.4960775	NaN	2163746.4794972	2163746.99606298
50	22	0	0	90	36.1581920903955	36.241610738255	13	0.43336477579549	2	3	4	NaN	1	4	0.583423467416068	0	1	NaN	362	6	47	2	120	220	320	NaN	520	0.0103919226676226	2	0	NaN	2163748.7130192	NaN	2163749.6964765	2163750.21303478
50	22	0	0	90	36.1581920903955	36.241610738255	22	0.733386543653905	2	10	3	NaN	2	4	0.583423467416068	0	1	NaN	363	6	48	2	120	220	320	NaN	520	0.607239670585841	2	1	NaN	2163751.0299839	NaN	2163752.0133808	2163752.52991973
50	22	0	0	90	36.1581920903955	36.241610738255	24	0.800058047622442	2	5	5	NaN	1	4	0.583423467416068	0	1	NaN	364	6	49	2	120	220	320	NaN	520	0.102868170011789	1	1	NaN	2163754.0469259	NaN	2163755.0303413	2163755.54688693
50	22	0	0	90	36.1581920903955	36.241610738255	17	0.566707783732563	2	8	6	NaN	2	5	0.583423467416068	0	1	NaN	365	6	50	2	120	220	320	NaN	520	0.0104071707464755	1	0	NaN	2163756.4638442	NaN	2163757.4472427	2163757.96378613
50	22	0	0	90	36.1581920903955	36.241610738255	21	0.700050791669637	2	8	1	NaN	2	5	0.583423467416068	0	1	NaN	366	6	51	2	120	220	320	NaN	520	0.0103899226523936	2	1	NaN	2163758.8639381	NaN	2163759.8474647	2163760.36402978
50	22	0	0	90	36.1581920903955	36.241610738255	12	0.400029023811221	2	8	3	NaN	2	5	0.583423467416068	0	1	NaN	367	6	52	2	120	220	320	NaN	520	0.472267922945321	2	1	NaN	2163761.1809748	NaN	2163762.1642733	2163762.68091828
50	22	0	0	90	36.1581920903955	36.241610738255	25	0.833393799606711	2	3	5	NaN	1	5	0.583423467416068	0	1	NaN	368	6	53	2	120	220	320	NaN	520	0.233165117911994	1	1	NaN	2163763.9645579	NaN	2163764.9479851	2163765.46452108
50	22	0	0	90	36.1581920903955	36.241610738255	12	0.400029023811221	2	8	6	NaN	2	4	0.583423467416068	0	1	NaN	369	6	54	2	120	220	320	NaN	520	0.258491285145283	1	0	NaN	2163766.5148572	NaN	2163767.4982238	2163768.01477721
50	22	0	0	90	36.1581920903955	36.241610738255	6	0.200014511905611	2	1	2	NaN	1	5	0.583423467416068	0	1	NaN	370	6	55	2	120	220	320	NaN	520	0.0103909224271774	1	1	NaN	2163769.0818395	NaN	2163770.0651388	2163770.58171588
50	22	0	0	90	36.1581920903955	36.241610738255	6	0.200014511905611	2	12	6	NaN	2	3	0.583423467416068	0	1	NaN	371	6	56	2	120	220	320	NaN	520	0.150307922624052	1	0	NaN	2163771.415325	NaN	2163772.3986903	2163772.91526178
50	22	0	0	90	36.1581920903955	36.241610738255	25	0.833393799606711	2	8	2	NaN	2	3	0.583423467416068	0	1	NaN	372	6	57	2	120	220	320	NaN	520	0.0103792753070593	2	1	NaN	2163773.8822058	NaN	2163774.8656459	2163775.38216572
50	22	0	0	90	36.1581920903955	36.241610738255	23	0.766722295638174	2	11	4	NaN	2	5	0.583423467416068	0	1	NaN	373	6	58	2	120	220	320	NaN	520	0.301611570641398	1	0	NaN	2163776.2156385	NaN	2163777.1991792	2163777.71573663
50	22	0	0	90	36.1581920903955	36.241610738255	15	0.500036279764026	2	5	5	NaN	1	3	0.583423467416068	0	1	NaN	374	6	59	2	120	220	320	NaN	520	0.0104036224074662	1	1	NaN	2163779.2660568	NaN	2163780.2494608	2163780.76603938
50	22	0	0	90	36.1581920903955	36.241610738255	17	0.566707783732563	2	5	5	NaN	1	5	0.583423467416068	0	1	NaN	375	6	60	2	120	220	320	NaN	520	0.222419422585517	1	1	NaN	2163781.5829652	NaN	2163782.5663712	2163783.08293388
50	22	0	0	90	36.1581920903955	36.241610738255	13	0.43336477579549	2	10	6	NaN	2	4	0.583423467416068	0	1	NaN	376	6	61	2	120	220	320	NaN	520	0.256651775445789	2	1	NaN	2163784.1165598	NaN	2163785.0999537	2163785.61651902
50	22	0	0	90	36.1581920903955	36.241610738255	22	0.733386543653905	2	3	4	NaN	1	3	0.583423467416068	0	1	NaN	377	6	62	2	120	220	320	NaN	520	0.37802128540352	1	1	NaN	2163786.6834652	NaN	2163787.6668681	2163788.18343441
50	22	0	0	90	36.1581920903955	36.241610738255	8	0.266686015874147	2	8	1	NaN	2	5	0.583423467416068	0	1	NaN	378	6	63	2	120	220	320	NaN	520	0.317750122863799	1	0	NaN	2163789.3837272	NaN	2163790.3671248	2163790.88369248
50	22	0	0	90	36.1581920903955	36.241610738255	6	0.200014511905611	2	5	2	NaN	1	4	0.583423467416068	0	1	NaN	379	7	1	2	120	220	320	NaN	520	0.940037222579122	2	0	NaN	2163796.0175847	NaN	2163797.0011768	2163797.51767798
50	22	0	0	90	36.1581920903955	36.241610738255	16	0.533372031748295	2	4	4	NaN	1	5	0.583423467416068	0	1	NaN	380	7	2	2	120	220	320	NaN	520	0.0103913224302232	2	0	NaN	2163799.2680372	NaN	2163800.2514382	2163800.76799818
50	22	0	0	90	36.1581920903955	36.241610738255	13	0.43336477579549	2	9	6	NaN	2	5	0.583423467416068	0	1	NaN	381	7	3	2	120	220	320	NaN	520	0.179635570384562	2	1	NaN	2163801.601613	NaN	2163802.5850132	2163803.10155463
50	22	0	0	90	36.1581920903955	36.241610738255	20	0.666715039685368	2	5	4	NaN	1	5	0.583423467416068	0	1	NaN	382	7	4	2	120	220	320	NaN	520	0.0103721753694117	2	0	NaN	2163804.101869	NaN	2163805.0852628	2163805.60181382
50	22	0	0	90	36.1581920903955	36.241610738255	9	0.300021767858416	2	1	1	NaN	1	5	0.583423467416068	0	1	NaN	383	7	5	2	120	220	320	NaN	520	0.0102825900539756	1	1	NaN	2163806.7687787	NaN	2163807.7521933	2163808.26874851
50	22	0	0	90	36.1581920903955	36.241610738255	22	0.733386543653905	2	6	4	NaN	1	5	0.583423467416068	0	1	NaN	384	7	6	2	120	220	320	NaN	520	0.0103998226113617	1	1	NaN	2163809.1023437	NaN	2163810.0857415	2163810.60230678
50	22	0	0	90	36.1581920903955	36.241610738255	0	0	1	8	1	NaN	2	3	0.583423467416068	0	1	NaN	385	7	7	2	110	210	310	NaN	510	0.0103969229385257	2	1	NaN	2163811.7692257	NaN	2163812.7526578	2163813.26923148
50	22	0	0	90	36.1581920903955	36.241610738255	8	0.266686015874147	2	8	1	NaN	2	4	0.583423467416068	0	1	NaN	386	7	8	2	120	220	320	NaN	520	0.010391122661531	2	1	NaN	2163814.1028478	NaN	2163815.086296	2163815.60281118
50	22	0	0	90	36.1581920903955	36.241610738255	14	0.466700527779758	2	7	6	NaN	2	3	0.583423467416068	0	1	NaN	387	7	9	2	120	220	320	NaN	520	0.0104036224074662	2	1	NaN	2163816.4364869	NaN	2163817.4198129	2163817.93634738
50	22	0	0	90	36.1581920903955	36.241610738255	11	0.366693271826953	2	9	3	NaN	2	3	0.583423467416068	0	1	NaN	388	7	10	2	120	220	320	NaN	520	0.140821322333068	1	0	NaN	2163818.9367088	NaN	2163819.9200465	2163820.43659618
50	22	0	0	90	36.1581920903955	36.241610738255	18	0.600043535716832	2	5	1	NaN	1	5	0.583423467416068	0	1	NaN	389	7	11	2	120	220	320	NaN	520	0.0103967227041721	1	1	NaN	2163821.3868766	NaN	2163822.3702859	2163822.88684398
50	22	0	0	90	36.1581920903955	36.241610738255	21	0.700050791669637	2	9	6	NaN	2	4	0.583423467416068	0	1	NaN	390	7	12	2	120	220	320	NaN	520	0.59775342233479	2	1	NaN	2163823.7037728	NaN	2163824.6871992	2163825.20373098
50	22	0	0	90	36.1581920903955	36.241610738255	24	0.800058047622442	2	7	1	NaN	2	4	0.583423467416068	0	1	NaN	391	7	13	2	120	220	320	NaN	520	0.010407870169729	2	1	NaN	2163826.6207424	NaN	2163827.6041856	2163828.12068893
50	22	0	0	90	36.1581920903955	36.241610738255	21	0.700050791669637	2	1	2	NaN	1	5	0.583423467416068	0	1	NaN	392	7	14	2	120	220	320	NaN	520	0.0102979899384081	1	1	NaN	2163829.4042556	NaN	2163830.3877447	2163830.90430381
50	22	0	0	90	36.1581920903955	36.241610738255	9	0.300021767858416	2	11	6	NaN	2	4	0.583423467416068	0	1	NaN	393	7	15	2	120	220	320	NaN	520	0.0843279752880335	2	1	NaN	2163831.7212454	NaN	2163832.7046492	2163833.22119742
50	22	0	0	90	36.1581920903955	36.241610738255	14	0.466700527779758	2	3	1	NaN	1	3	0.583423467416068	0	1	NaN	394	7	16	2	120	220	320	NaN	520	0.0103777754120529	1	1	NaN	2163834.1213257	NaN	2163835.1048708	2163835.62143172
50	22	0	0	90	36.1581920903955	36.241610738255	22	0.733386543653905	2	10	3	NaN	2	3	0.583423467416068	0	1	NaN	395	7	17	2	120	220	320	NaN	520	0.31119152251631	2	1	NaN	2163836.4383704	NaN	2163837.4217856	2163837.93832518
50	22	0	0	90	36.1581920903955	36.241610738255	17	0.566707783732563	2	9	3	NaN	2	4	0.583423467416068	0	1	NaN	396	7	18	2	120	220	320	NaN	520	0.157875722739846	2	1	NaN	2163839.071955	NaN	2163840.0553793	2163840.57191858
50	22	0	0	90	36.1581920903955	36.241610738255	7	0.233350263889879	2	2	1	NaN	1	3	0.583423467416068	0	1	NaN	397	7	19	2	120	220	320	NaN	520	0.0586227900348604	2	0	NaN	2163841.5388796	NaN	2163842.5222871	2163843.03882501
50	22	0	0	90	36.1581920903955	36.241610738255	9	0.300021767858416	2	6	6	NaN	1	4	0.583423467416068	0	1	NaN	398	7	20	2	120	220	320	NaN	520	1.23607672285289	1	1	NaN	2163843.9058559	NaN	2163844.8891623	2163845.40571708
50	22	0	0	90	36.1581920903955	36.241610738255	8	0.266686015874147	2	4	6	NaN	1	5	0.583423467416068	0	1	NaN	399	7	21	2	120	220	320	NaN	520	0.0103936227969825	1	1	NaN	2163847.4560971	NaN	2163848.4395269	2163848.95607528
50	22	0	0	90	36.1581920903955	36.241610738255	16	0.533372031748295	2	6	4	NaN	1	3	0.583423467416068	0	1	NaN	400	7	22	2	120	220	320	NaN	520	0.191939722746611	1	1	NaN	2163849.7896719	NaN	2163850.7730814	2163851.28962928
50	22	0	0	90	36.1581920903955	36.241610738255	10	0.333357519842684	2	7	3	NaN	2	4	0.583423467416068	0	1	NaN	401	7	23	2	120	220	320	NaN	520	0.78318292228505	2	1	NaN	2163852.6065004	NaN	2163853.5900309	2163854.10658198
50	22	0	0	90	36.1581920903955	36.241610738255	8	0.266686015874147	2	7	2	NaN	2	4	0.583423467416068	0	1	NaN	402	7	24	2	120	220	320	NaN	520	0.290782070718706	2	1	NaN	2163855.7069228	NaN	2163856.6903363	2163857.20687543
50	22	0	0	90	36.1581920903955	36.241610738255	20	0.666715039685368	2	8	5	NaN	2	5	0.583423467416068	0	1	NaN	403	7	25	2	120	220	320	NaN	520	0.378310522530228	1	0	NaN	2163858.3071846	NaN	2163859.2905896	2163859.80714268
50	22	0	0	90	36.1581920903955	36.241610738255	13	0.43336477579549	2	6	4	NaN	1	4	0.583423467416068	0	1	NaN	404	7	26	2	120	220	320	NaN	520	0.382191222626716	1	1	NaN	2163861.007454	NaN	2163861.9908427	2163862.50740838
50	22	0	0	90	36.1581920903955	36.241610738255	10	0.333357519842684	2	6	1	NaN	1	4	0.583423467416068	0	1	NaN	405	7	27	2	120	220	320	NaN	520	0.426591922529042	1	1	NaN	2163863.6909231	NaN	2163864.6744556	2163865.19099678
50	22	0	0	90	36.1581920903955	36.241610738255	25	0.833393799606711	2	6	2	NaN	1	4	0.583423467416068	0	1	NaN	406	7	28	2	120	220	320	NaN	520	0.0209285179153085	1	1	NaN	2163866.4246554	NaN	2163867.4080543	2163867.92460098
50	22	0	0	90	36.1581920903955	36.241610738255	16	0.533372031748295	2	5	5	NaN	1	4	0.583423467416068	0	1	NaN	407	7	29	2	120	220	320	NaN	520	0.33132992265746	1	1	NaN	2163868.8581875	NaN	2163869.8416312	2163870.35817738
50	22	0	0	90	36.1581920903955	36.241610738255	24	0.800058047622442	2	3	5	NaN	1	3	0.583423467416068	0	1	NaN	408	7	30	2	120	220	320	NaN	520	0.217244270257652	1	1	NaN	2163871.5084846	NaN	2163872.4919059	2163873.00843113
50	22	0	0	90	36.1581920903955	36.241610738255	19	0.6333792877011	2	4	3	NaN	1	3	0.583423467416068	0	1	NaN	409	7	31	2	120	220	320	NaN	520	0.0789164225570858	1	1	NaN	2163874.3587463	NaN	2163875.3422042	2163875.85872108
50	22	0	0	90	36.1581920903955	36.241610738255	12	0.400029023811221	2	12	6	NaN	2	4	0.583423467416068	0	1	NaN	410	7	32	2	120	220	320	NaN	520	0.495273522567004	1	0	NaN	2163876.7423388	NaN	2163877.7257348	2163878.24228768
50	22	0	0	90	36.1581920903955	36.241610738255	13	0.43336477579549	2	10	2	NaN	2	3	0.583423467416068	0	1	NaN	411	7	33	2	120	220	320	NaN	520	0.503072722814977	1	0	NaN	2163879.5424699	NaN	2163880.5260146	2163881.04255568
50	22	0	0	90	36.1581920903955	36.241610738255	21	0.700050791669637	2	3	3	NaN	1	4	0.583423467416068	0	1	NaN	412	7	34	2	120	220	320	NaN	520	0.326046922709793	1	1	NaN	2163882.3595537	NaN	2163883.3429495	2163883.85949748
50	22	0	0	90	36.1581920903955	36.241610738255	6	0.200014511905611	2	8	2	NaN	2	4	0.583423467416068	0	1	NaN	413	7	35	2	120	220	320	NaN	520	0.0102711427025497	2	1	NaN	2163885.3431468	NaN	2163886.326573	2163886.84313976
50	22	0	0	90	36.1581920903955	36.241610738255	12	0.400029023811221	2	9	5	NaN	2	3	0.583423467416068	0	1	NaN	414	7	36	2	120	220	320	NaN	520	0.2188540706411	2	1	NaN	2163888.0267308	NaN	2163889.0101794	2163889.52672853
50	22	0	0	90	36.1581920903955	36.241610738255	17	0.566707783732563	2	9	2	NaN	2	3	0.583423467416068	0	1	NaN	415	7	37	2	120	220	320	NaN	520	0.0103820227086544	2	1	NaN	2163890.5603485	NaN	2163891.5437663	2163892.06031058
50	22	0	0	90	36.1581920903955	36.241610738255	12	0.400029023811221	2	9	3	NaN	2	3	0.583423467416068	0	1	NaN	416	7	38	2	120	220	320	NaN	520	0.0104063227772713	2	1	NaN	2163892.8772618	NaN	2163893.8606292	2163894.37719768
50	22	0	0	90	36.1581920903955	36.241610738255	22	0.733386543653905	2	4	2	NaN	1	3	0.583423467416068	0	1	NaN	417	7	39	2	120	220	320	NaN	520	0.0104238176718354	1	1	NaN	2163895.1941521	NaN	2163896.1775531	2163896.69409248
50	22	0	0	90	36.1581920903955	36.241610738255	18	0.600043535716832	2	2	6	NaN	1	3	0.583423467416068	0	1	NaN	418	7	40	2	120	220	320	NaN	520	0.310684922616929	1	1	NaN	2163897.5110286	NaN	2163898.4944766	2163899.01098688
50	22	0	0	90	36.1581920903955	36.241610738255	12	0.400029023811221	2	4	5	NaN	1	3	0.583423467416068	0	1	NaN	419	7	41	2	120	220	320	NaN	520	0.221934822853655	1	1	NaN	2163900.12797	NaN	2163901.1113487	2163901.62793798
50	22	0	0	90	36.1581920903955	36.241610738255	19	0.6333792877011	2	9	6	NaN	2	5	0.583423467416068	0	1	NaN	420	7	42	2	120	220	320	NaN	520	0.423930922523141	2	1	NaN	2163902.6615446	NaN	2163903.6449481	2163904.16150448
50	22	0	0	90	36.1581920903955	36.241610738255	6	0.200014511905611	2	9	4	NaN	2	4	0.583423467416068	0	1	NaN	421	7	43	2	120	220	320	NaN	520	0.106205422431231	1	0	NaN	2163905.3952414	NaN	2163906.3785612	2163906.89510158
50	22	0	0	90	36.1581920903955	36.241610738255	11	0.366693271826953	2	10	2	NaN	2	5	0.583423467416068	0	1	NaN	422	7	44	2	120	220	320	NaN	520	0.257659122347832	1	0	NaN	2163907.8120476	NaN	2163908.7954459	2163909.31200758
50	22	0	0	90	36.1581920903955	36.241610738255	12	0.400029023811221	2	3	2	NaN	1	3	0.583423467416068	0	1	NaN	423	7	45	2	120	220	320	NaN	520	0.0104387705214322	1	1	NaN	2163910.3788389	NaN	2163911.362378	2163911.87891593
50	22	0	0	90	36.1581920903955	36.241610738255	9	0.300021767858416	2	3	6	NaN	1	5	0.583423467416068	0	1	NaN	424	7	46	2	120	220	320	NaN	520	0.046903770416975	2	0	NaN	2163913.0625507	NaN	2163914.0459491	2163914.56251583
50	22	0	0	90	36.1581920903955	36.241610738255	11	0.366693271826953	2	4	1	NaN	1	4	0.583423467416068	0	1	NaN	425	7	47	2	120	220	320	NaN	520	0.0188793796114624	1	1	NaN	2163915.7628054	NaN	2163916.746137	2163917.26278732
50	22	0	0	90	36.1581920903955	36.241610738255	10	0.333357519842684	2	10	1	NaN	2	5	0.583423467416068	0	1	NaN	426	7	48	2	120	220	320	NaN	520	0.869302870705724	2	1	NaN	2163918.0963933	NaN	2163919.07981	2163919.59634393
50	22	0	0	90	36.1581920903955	36.241610738255	25	0.833393799606711	2	6	2	NaN	1	4	0.583423467416068	0	1	NaN	427	7	49	2	120	220	320	NaN	520	0.169940922409296	1	1	NaN	2163921.5799434	NaN	2163922.5634741	2163923.08003208
50	22	0	0	90	36.1581920903955	36.241610738255	19	0.6333792877011	2	2	5	NaN	1	3	0.583423467416068	0	1	NaN	428	7	50	2	120	220	320	NaN	520	0.0940356226637959	2	0	NaN	2163924.0636386	NaN	2163925.0470733	2163925.56360248
50	22	0	0	90	36.1581920903955	36.241610738255	17	0.566707783732563	2	1	6	NaN	1	5	0.583423467416068	0	1	NaN	429	7	51	2	120	220	320	NaN	520	0.385002522729337	2	0	NaN	2163926.7806297	NaN	2163927.7639891	2163928.28053838
50	22	0	0	90	36.1581920903955	36.241610738255	14	0.466700527779758	2	1	2	NaN	1	3	0.583423467416068	0	1	NaN	430	7	52	2	120	220	320	NaN	520	0.0769480704329908	1	1	NaN	2163929.4808375	NaN	2163930.4642557	2163930.98079673
50	22	0	0	90	36.1581920903955	36.241610738255	20	0.666715039685368	2	9	1	NaN	2	3	0.583423467416068	0	1	NaN	431	7	53	2	120	220	320	NaN	520	0.215263570193201	2	1	NaN	2163932.2144604	NaN	2163933.1978615	2163933.71439603
50	22	0	0	90	36.1581920903955	36.241610738255	8	0.266686015874147	2	10	4	NaN	2	5	0.583423467416068	0	1	NaN	432	7	54	2	120	220	320	NaN	520	0.19363952241838	2	1	NaN	2163934.748039	NaN	2163935.7314237	2163936.24798458
50	22	0	0	90	36.1581920903955	36.241610738255	15	0.500036279764026	2	2	6	NaN	1	5	0.583423467416068	0	1	NaN	433	7	55	2	120	220	320	NaN	520	0.221689670346677	2	0	NaN	2163937.2482874	NaN	2163938.2316775	2163938.74822713
50	22	0	0	90	36.1581920903955	36.241610738255	16	0.533372031748295	2	1	4	NaN	1	4	0.583423467416068	0	1	NaN	434	7	56	2	120	220	320	NaN	520	0.792150227818638	2	0	NaN	2163939.7818534	NaN	2163940.7652626	2163941.28180897
50	22	0	0	90	36.1581920903955	36.241610738255	12	0.400029023811221	2	4	5	NaN	1	3	0.583423467416068	0	1	NaN	435	7	57	2	120	220	320	NaN	520	0.203808622434735	1	1	NaN	2163942.8821667	NaN	2163943.8655737	2163944.38211698
50	22	0	0	90	36.1581920903955	36.241610738255	24	0.800058047622442	2	9	5	NaN	2	4	0.583423467416068	0	1	NaN	436	7	58	2	120	220	320	NaN	520	0.110668322537094	2	1	NaN	2163945.3990614	NaN	2163946.3825023	2163946.89903088
50	22	0	0	90	36.1581920903955	36.241610738255	6	0.200014511905611	2	3	5	NaN	1	5	0.583423467416068	0	1	NaN	437	7	59	2	120	220	320	NaN	520	0.0209652702324092	2	0	NaN	2163947.8326744	NaN	2163948.8160757	2163949.33259843
50	22	0	0	90	36.1581920903955	36.241610738255	7	0.233350263889879	2	10	4	NaN	2	5	0.583423467416068	0	1	NaN	438	7	60	2	120	220	320	NaN	520	0.543493270408362	2	1	NaN	2163950.1662076	NaN	2163951.1496176	2163951.66616953
50	22	0	0	90	36.1581920903955	36.241610738255	23	0.766722295638174	2	10	5	NaN	2	5	0.583423467416068	0	1	NaN	439	7	61	2	120	220	320	NaN	520	0.0104102701880038	1	0	NaN	2163953.016497	NaN	2163953.9999096	2163954.51644643
50	22	0	0	90	36.1581920903955	36.241610738255	20	0.666715039685368	2	2	6	NaN	1	5	0.583423467416068	0	1	NaN	440	7	62	2	120	220	320	NaN	520	0.119936722330749	2	0	NaN	2163955.3500617	NaN	2163956.3334747	2163956.85001728
50	22	0	0	90	36.1581920903955	36.241610738255	20	0.666715039685368	2	1	2	NaN	1	5	0.583423467416068	0	1	NaN	441	7	63	2	120	220	320	NaN	520	0.358027022797614	1	1	NaN	2163957.7835133	NaN	2163958.7670381	2163959.28359638
50	22	0	0	90	36.1581920903955	36.241610738255	20	0.666715039685368	2	4	5	NaN	1	5	0.583423467416068	0	1	NaN	442	8	1	2	120	220	320	NaN	520	0.775910722557455	1	1	NaN	2163962.1339328	NaN	2163963.1174558	2163963.63401018
50	22	0	0	90	36.1581920903955	36.241610738255	21	0.700050791669637	2	7	4	NaN	2	3	0.583423467416068	0	1	NaN	443	8	2	2	120	220	320	NaN	520	0.0104224178940058	2	1	NaN	2163965.2342631	NaN	2163966.2177869	2163966.73431928
50	22	0	0	90	36.1581920903955	36.241610738255	21	0.700050791669637	2	6	3	NaN	1	4	0.583423467416068	0	1	NaN	444	8	3	2	120	220	320	NaN	520	0.0104259704239666	1	1	NaN	2163967.5679145	NaN	2163968.5513372	2163969.06787523
50	22	0	0	90	36.1581920903955	36.241610738255	21	0.700050791669637	2	12	5	NaN	2	5	0.583423467416068	0	1	NaN	445	8	4	2	120	220	320	NaN	520	0.374239170458168	1	0	NaN	2163969.9514677	NaN	2163970.9348907	2163971.45145083
50	22	0	0	90	36.1581920903955	36.241610738255	14	0.466700527779758	2	7	4	NaN	2	3	0.583423467416068	0	1	NaN	446	8	5	2	120	220	320	NaN	520	0.426943922415376	1	0	NaN	2163972.6350805	NaN	2163973.6184994	2163974.13504608
50	22	0	0	90	36.1581920903955	36.241610738255	17	0.566707783732563	2	12	3	NaN	2	5	0.583423467416068	0	1	NaN	447	8	6	2	120	220	320	NaN	520	1.14811237482354	1	0	NaN	2163975.3853609	NaN	2163976.3687664	2163976.88531803
50	22	0	0	90	36.1581920903955	36.241610738255	13	0.43336477579549	2	4	4	NaN	1	5	0.583423467416068	0	1	NaN	448	8	7	2	120	220	320	NaN	520	0.433994022663683	1	1	NaN	2163978.8356891	NaN	2163979.8191108	2163980.33565898
50	22	0	0	90	36.1581920903955	36.241610738255	14	0.466700527779758	2	1	5	NaN	1	5	0.583423467416068	0	1	NaN	449	8	8	2	120	220	320	NaN	520	0.363829722627997	2	0	NaN	2163981.5859902	NaN	2163982.5693596	2163983.08593128
50	22	0	0	90	36.1581920903955	36.241610738255	12	0.400029023811221	2	7	5	NaN	2	4	0.583423467416068	0	1	NaN	450	8	9	2	120	220	320	NaN	520	0.248337170109153	2	1	NaN	2163984.2695595	NaN	2163985.25294	2163985.76951433
50	22	0	0	90	36.1581920903955	36.241610738255	20	0.666715039685368	2	7	1	NaN	2	3	0.583423467416068	0	1	NaN	451	8	10	2	120	220	320	NaN	520	0.31478527514264	2	1	NaN	2163987.2031719	NaN	2163988.1865934	2163988.70314072
50	22	0	0	90	36.1581920903955	36.241610738255	18	0.600043535716832	2	8	4	NaN	2	4	0.583423467416068	0	1	NaN	452	8	11	2	120	220	320	NaN	520	0.273035822436213	1	0	NaN	2163989.8367735	NaN	2163990.8201924	2163991.33673928
50	22	0	0	90	36.1581920903955	36.241610738255	20	0.666715039685368	2	8	3	NaN	2	3	0.583423467416068	0	1	NaN	453	8	12	2	120	220	320	NaN	520	0.225683270487934	1	0	NaN	2163992.4203707	NaN	2163993.4037905	2163993.92031583
50	22	0	0	90	36.1581920903955	36.241610738255	13	0.43336477579549	2	1	1	NaN	1	3	0.583423467416068	0	1	NaN	454	8	13	2	120	220	320	NaN	520	0.3320223223418	1	1	NaN	2163994.9539466	NaN	2163995.9373549	2163996.45390618
50	22	0	0	90	36.1581920903955	36.241610738255	10	0.333357519842684	2	12	2	NaN	2	4	0.583423467416068	0	1	NaN	455	8	14	2	120	220	320	NaN	520	0.266401122324169	2	1	NaN	2163997.5875532	NaN	2163998.5709788	2163999.08749518
50	22	0	0	90	36.1581920903955	36.241610738255	11	0.366693271826953	2	2	2	NaN	1	3	0.583423467416068	0	1	NaN	456	8	15	2	120	220	320	NaN	520	0.010426917579025	2	0	NaN	2164000.1711225	NaN	2164001.1545422	2164001.67107898
50	22	0	0	90	36.1581920903955	36.241610738255	22	0.733386543653905	2	11	4	NaN	2	3	0.583423467416068	0	1	NaN	457	8	16	2	120	220	320	NaN	520	0.158043270464987	2	1	NaN	2164002.488036	NaN	2164003.4714289	2164003.98797613
50	22	0	0	90	36.1581920903955	36.241610738255	11	0.366693271826953	2	7	1	NaN	2	5	0.583423467416068	0	1	NaN	458	8	17	2	120	220	320	NaN	520	0.0988314226269722	2	1	NaN	2164004.9548756	NaN	2164005.9383336	2164006.45488438
50	22	0	0	90	36.1581920903955	36.241610738255	21	0.700050791669637	2	6	2	NaN	1	4	0.583423467416068	0	1	NaN	459	8	18	2	120	220	320	NaN	520	0.0660273702815175	1	1	NaN	2164007.3718477	NaN	2164008.3552444	2164008.87178523
