subjno	age	gender	isPractice	viewdist	CmToPixX	CmToPixY	SOA_frm	SOA_time	targNum	targID	targExample	targRace	targGender	firstTargPos	contrast	familiarity	curr_staircase	iStair	TrialNum	BlockNum	blktrl	sessionNum	TC_FIXATION	TC_RSVP_START	TC_RSVP_END	TC_BLANK	TC_RESPONSE_ONSET	RT2afc	resp_2afc	acc	RSVPOnsetVBL	RSVPOnsetTime	RSVPOffsetVBL	RSVPOffsetTime	startrt_2afc
41	19	1	0	90	36.1581920903955	36.241610738255	23	0.766744284126908	2	8	6	NaN	2	5	0.07020130164029	0	1	NaN	1	1	1	1	120	220	320	NaN	520	0.290712679736316	1	0	NaN	1734152.2227	NaN	1734153.205963	1734153.73907252
41	19	1	0	90	36.1581920903955	36.241610738255	9	0.300030372049659	2	8	5	NaN	2	4	0.07020130164029	0	1	NaN	2	1	2	1	120	220	320	NaN	520	0.423816031776369	2	1	NaN	1734154.8894858	NaN	1734155.8727485	1734156.40601017
41	19	1	0	90	36.1581920903955	36.241610738255	11	0.366703788060695	2	8	6	NaN	2	3	0.07020130164029	0	1	NaN	3	1	3	1	120	220	320	NaN	520	0.993363891961053	1	0	NaN	1734157.6562936	NaN	1734158.6397168	1734159.15627581
41	19	1	0	90	36.1581920903955	36.241610738255	20	0.666734160110354	2	4	3	NaN	1	3	0.07020130164029	0	1	NaN	4	1	4	1	120	220	320	NaN	520	0.572775483829901	2	0	NaN	1734160.9731866	NaN	1734161.9567056	1734162.47327082
41	19	1	0	90	36.1581920903955	36.241610738255	24	0.800080992132425	2	1	3	NaN	1	3	0.07020130164029	0	1	NaN	5	1	5	1	120	220	320	NaN	520	0.456571931717917	2	0	NaN	1734163.8736062	NaN	1734164.8570079	1734165.37355457
41	19	1	0	90	36.1581920903955	36.241610738255	22	0.73340757612139	2	1	5	NaN	1	4	0.07020130164029	0	1	NaN	6	1	6	1	120	220	320	NaN	520	0.928549823584035	1	1	NaN	1734166.6572171	NaN	1734167.6405991	1734168.15715038
41	19	1	0	90	36.1581920903955	36.241610738255	18	0.600060744099319	2	3	6	NaN	1	5	0.07020130164029	0	1	NaN	7	1	7	1	120	220	320	NaN	520	1.06998217571527	2	0	NaN	1734169.9242212	NaN	1734170.907633	1734171.42414512
41	19	1	0	90	36.1581920903955	36.241610738255	16	0.533387328088283	2	6	4	NaN	1	5	0.07020130164029	0	1	NaN	8	1	8	1	120	220	320	NaN	520	0.406607635784894	1	1	NaN	1734173.4911846	NaN	1734174.4746734	1734174.99117056
41	19	1	0	90	36.1581920903955	36.241610738255	14	0.466713912077248	2	8	3	NaN	2	5	0.07020130164029	0	1	NaN	9	1	9	1	120	220	320	NaN	520	2.48037187568843	1	0	NaN	1734176.2414715	NaN	1734177.224877	1734177.74143402
41	19	1	0	90	36.1581920903955	36.241610738255	22	0.73340757612139	2	10	2	NaN	2	3	0.07020130164029	0	1	NaN	10	1	10	1	120	220	320	NaN	520	0.450479775667191	1	0	NaN	1734181.1753146	NaN	1734182.1586918	1734182.67524692
41	19	1	0	90	36.1581920903955	36.241610738255	13	0.43337720407173	2	9	2	NaN	2	4	0.07020130164029	0	1	NaN	11	1	11	1	120	220	320	NaN	520	0.435428175609559	2	1	NaN	1734183.9422484	NaN	1734184.9256494	1734185.44219192
41	19	1	0	90	36.1581920903955	36.241610738255	10	0.333367080055177	2	11	2	NaN	2	5	0.07020130164029	0	1	NaN	12	1	12	1	120	220	320	NaN	520	2.24475692771375	2	1	NaN	1734186.7092076	NaN	1734187.6925625	1734188.20913107
41	19	1	0	90	36.1581920903955	36.241610738255	16	0.533387328088283	2	5	6	NaN	1	4	0.07020130164029	0	1	NaN	13	1	13	1	120	220	320	NaN	520	0.585389975691214	1	1	NaN	1734191.3763148	NaN	1734192.3597049	1734192.87625412
41	19	1	0	90	36.1581920903955	36.241610738255	25	0.833417700137943	2	8	4	NaN	2	5	0.07020130164029	0	1	NaN	14	1	14	1	120	220	320	NaN	520	1.9572518276982	2	1	NaN	1734194.2766032	NaN	1734195.2600135	1734195.77654097
41	19	1	0	90	36.1581920903955	36.241610738255	20	0.666734160110354	2	6	1	NaN	1	5	0.07020130164029	0	1	NaN	15	1	15	1	120	220	320	NaN	520	0.62574287969619	1	1	NaN	1734198.5603435	NaN	1734199.5437448	1734200.06029892
41	19	1	0	90	36.1581920903955	36.241610738255	20	0.666734160110354	2	9	6	NaN	2	3	0.07020130164029	0	1	NaN	16	1	16	1	120	220	320	NaN	520	0.477438475703821	2	1	NaN	1734201.6606213	NaN	1734202.6440276	1734203.16059932
41	19	1	0	90	36.1581920903955	36.241610738255	7	0.233356956038624	2	9	2	NaN	2	3	0.07020130164029	0	1	NaN	17	1	17	1	120	220	320	NaN	520	0.428980491822585	2	1	NaN	1734204.4609104	NaN	1734205.4443077	1734205.96086921
41	19	1	0	90	36.1581920903955	36.241610738255	8	0.266693664044142	2	3	3	NaN	1	3	0.07020130164029	0	1	NaN	18	1	18	1	120	220	320	NaN	520	0.3746943755541	1	1	NaN	1734207.2112929	NaN	1734208.194606	1734208.71114122
41	19	1	0	90	36.1581920903955	36.241610738255	22	0.73340757612139	2	12	5	NaN	2	3	0.07020130164029	0	1	NaN	19	1	19	1	120	220	320	NaN	520	0.75468457560055	1	0	NaN	1734209.9113387	NaN	1734210.8948559	1734211.41140622
41	19	1	0	90	36.1581920903955	36.241610738255	6	0.200020248033106	2	2	2	NaN	1	3	0.07020130164029	0	1	NaN	20	1	20	1	120	220	320	NaN	520	0.470987827749923	1	1	NaN	1734212.9950727	NaN	1734213.9784844	1734214.49504177
41	19	1	0	90	36.1581920903955	36.241610738255	19	0.633397452104837	2	3	5	NaN	1	4	0.07020130164029	0	1	NaN	21	1	21	1	120	220	320	NaN	520	0.406408775597811	1	1	NaN	1734215.7953535	NaN	1734216.7787852	1734217.29531742
41	19	1	0	90	36.1581920903955	36.241610738255	18	0.600060744099319	2	11	6	NaN	2	4	0.07020130164029	0	1	NaN	22	1	22	1	120	220	320	NaN	520	2.08081462769769	2	1	NaN	1734218.5289779	NaN	1734219.5123602	1734220.02891917
41	19	1	0	90	36.1581920903955	36.241610738255	7	0.233356956038624	2	12	5	NaN	2	5	0.07020130164029	0	1	NaN	23	1	23	1	120	220	320	NaN	520	3.20822707144544	2	1	NaN	1734222.9294065	NaN	1734223.9127672	1734224.42934503
41	19	1	0	90	36.1581920903955	36.241610738255	7	0.233356956038624	2	11	4	NaN	2	4	0.07020130164029	0	1	NaN	24	1	24	1	120	220	320	NaN	520	0.426592427771538	2	1	NaN	1734228.4632865	NaN	1734229.4466686	1734229.96322987
41	19	1	0	90	36.1581920903955	36.241610738255	17	0.566724036093801	2	2	6	NaN	1	3	0.07020130164029	0	1	NaN	25	1	25	1	120	220	320	NaN	520	0.364644896006212	1	1	NaN	1734231.2135386	NaN	1734232.1969586	1734232.7135099
41	19	1	0	90	36.1581920903955	36.241610738255	12	0.400040496066213	2	11	4	NaN	2	4	0.07020130164029	0	1	NaN	26	1	26	1	120	220	320	NaN	520	0.368729627691209	2	1	NaN	1734233.8971558	NaN	1734234.8805723	1734235.39710227
41	19	1	0	90	36.1581920903955	36.241610738255	19	0.633397452104837	2	6	1	NaN	1	3	0.07020130164029	0	1	NaN	27	1	27	1	120	220	320	NaN	520	0.301429575541988	1	1	NaN	1734236.5806189	NaN	1734237.5641449	1734238.08068802
41	19	1	0	90	36.1581920903955	36.241610738255	7	0.233356956038624	2	3	4	NaN	1	5	0.07020130164029	0	1	NaN	28	1	28	1	120	220	320	NaN	520	0.291472727665678	1	1	NaN	1734239.21443	NaN	1734240.1977221	1734240.71429167
41	19	1	0	90	36.1581920903955	36.241610738255	17	0.566724036093801	2	12	6	NaN	2	4	0.07020130164029	0	1	NaN	29	1	29	1	120	220	320	NaN	520	0.914709675591439	2	1	NaN	1734241.8312475	NaN	1734242.8146667	1734243.33121322
41	19	1	0	90	36.1581920903955	36.241610738255	24	0.800080992132425	2	5	5	NaN	1	5	0.07020130164029	0	1	NaN	30	1	30	1	120	220	320	NaN	520	0.384869027649984	1	1	NaN	1734245.0648026	NaN	1734246.0483023	1734246.56486607
41	19	1	0	90	36.1581920903955	36.241610738255	8	0.266693664044142	2	12	4	NaN	2	5	0.07020130164029	0	1	NaN	31	1	31	1	120	220	320	NaN	520	2.45269767567515	2	1	NaN	1734247.7651701	NaN	1734248.7485795	1734249.26512522
41	19	1	0	90	36.1581920903955	36.241610738255	24	0.800080992132425	2	6	5	NaN	1	4	0.07020130164029	0	1	NaN	32	1	32	1	120	220	320	NaN	520	0.380889623425901	1	1	NaN	1734252.5488548	NaN	1734253.5323676	1734254.04892158
41	19	1	0	90	36.1581920903955	36.241610738255	6	0.200020248033106	2	6	6	NaN	1	5	0.07020130164029	0	1	NaN	33	1	33	1	120	220	320	NaN	520	0.832807275466621	1	1	NaN	1734255.2492538	NaN	1734256.2326495	1734256.74919572
41	19	1	0	90	36.1581920903955	36.241610738255	22	0.73340757612139	2	8	6	NaN	2	3	0.07020130164029	0	1	NaN	34	1	34	1	120	220	320	NaN	520	0.306246523512527	1	0	NaN	1734258.3995675	NaN	1734259.3829506	1734259.89949568
41	19	1	0	90	36.1581920903955	36.241610738255	17	0.566724036093801	2	3	2	NaN	1	3	0.07020130164029	0	1	NaN	35	1	35	1	120	220	320	NaN	520	0.352560327621177	1	1	NaN	1734261.0330168	NaN	1734262.0165485	1734262.53310247
41	19	1	0	90	36.1581920903955	36.241610738255	11	0.366703788060695	2	3	4	NaN	1	4	0.07020130164029	0	1	NaN	36	1	36	1	120	220	320	NaN	520	0.710104475496337	1	1	NaN	1734263.7000555	NaN	1734264.683506	1734265.20001792
41	19	1	0	90	36.1581920903955	36.241610738255	15	0.500050620082766	2	6	4	NaN	1	3	0.07020130164029	0	1	NaN	37	1	37	1	120	220	320	NaN	520	0.460179075598717	1	1	NaN	1734266.7336936	NaN	1734267.7171024	1734268.23365782
41	19	1	0	90	36.1581920903955	36.241610738255	13	0.43337720407173	2	6	3	NaN	1	4	0.07020130164029	0	1	NaN	38	1	38	1	120	220	320	NaN	520	0.316596075426787	1	1	NaN	1734269.5172469	NaN	1734270.5007039	1734271.01725782
41	19	1	0	90	36.1581920903955	36.241610738255	18	0.600060744099319	2	2	4	NaN	1	4	0.07020130164029	0	1	NaN	39	1	39	1	120	220	320	NaN	520	0.803108679829165	1	1	NaN	1734272.1509201	NaN	1734273.1343242	1734273.65085452
41	19	1	0	90	36.1581920903955	36.241610738255	11	0.366703788060695	2	1	6	NaN	1	5	0.07020130164029	0	1	NaN	40	1	40	1	120	220	320	NaN	520	0.309500427683815	2	0	NaN	1734275.2845461	NaN	1734276.2679356	1734276.78450247
41	19	1	0	90	36.1581920903955	36.241610738255	12	0.400040496066213	2	7	5	NaN	2	3	0.07020130164029	0	1	NaN	41	1	41	1	120	220	320	NaN	520	0.411562975496054	2	1	NaN	1734277.9181188	NaN	1734278.9015484	1734279.41808742
41	19	1	0	90	36.1581920903955	36.241610738255	18	0.600060744099319	2	5	4	NaN	1	4	0.07020130164029	0	1	NaN	42	1	42	1	120	220	320	NaN	520	1.61401997553185	1	1	NaN	1734280.6517412	NaN	1734281.6351238	1734282.15169682
41	19	1	0	90	36.1581920903955	36.241610738255	25	0.833417700137943	2	7	5	NaN	2	4	0.07020130164029	0	1	NaN	43	1	43	1	120	220	320	NaN	520	0.776848327601328	2	1	NaN	1734284.5853289	NaN	1734285.5688642	1734286.08541477
41	19	1	0	90	36.1581920903955	36.241610738255	8	0.266693664044142	2	11	6	NaN	2	4	0.07020130164029	0	1	NaN	44	1	44	1	120	220	320	NaN	520	0.380422923481092	2	1	NaN	1734287.6857774	NaN	1734288.6691531	1734289.18570608
41	19	1	0	90	36.1581920903955	36.241610738255	24	0.800080992132425	2	11	4	NaN	2	4	0.07020130164029	0	1	NaN	45	1	45	1	120	220	320	NaN	520	0.367801775690168	2	1	NaN	1734290.3860414	NaN	1734291.3694453	1734291.88598192
41	19	1	0	90	36.1581920903955	36.241610738255	12	0.400040496066213	2	6	5	NaN	1	5	0.07020130164029	0	1	NaN	46	1	46	1	120	220	320	NaN	520	2.1081912277732	2	0	NaN	1734293.0695669	NaN	1734294.0530103	1734294.56958147
41	19	1	0	90	36.1581920903955	36.241610738255	15	0.500050620082766	2	2	4	NaN	1	3	0.07020130164029	0	1	NaN	47	1	47	1	120	220	320	NaN	520	0.355640275636688	1	1	NaN	1734297.4867077	NaN	1734298.4701306	1734298.98667592
41	19	1	0	90	36.1581920903955	36.241610738255	13	0.43337720407173	2	12	4	NaN	2	3	0.07020130164029	0	1	NaN	48	1	48	1	120	220	320	NaN	520	0.328183627687395	2	1	NaN	1734300.1535915	NaN	1734301.1370628	1734301.65361227
41	19	1	0	90	36.1581920903955	36.241610738255	7	0.233356956038624	2	5	4	NaN	1	5	0.07020130164029	0	1	NaN	49	1	49	1	120	220	320	NaN	520	0.694002475589514	1	1	NaN	1734302.8039526	NaN	1734303.7873266	1734304.30386742
41	19	1	0	90	36.1581920903955	36.241610738255	23	0.766744284126908	2	10	4	NaN	2	4	0.07020130164029	0	1	NaN	50	1	50	1	120	220	320	NaN	520	0.389076775405556	2	1	NaN	1734305.8208756	NaN	1734306.8042743	1734307.32082162
41	19	1	0	90	36.1581920903955	36.241610738255	11	0.366703788060695	2	11	4	NaN	2	4	0.07020130164029	0	1	NaN	51	1	51	1	120	220	320	NaN	520	0.344106875592843	2	1	NaN	1734308.5377716	NaN	1734309.5212204	1734310.03776512
41	19	1	0	90	36.1581920903955	36.241610738255	10	0.333367080055177	2	2	1	NaN	1	5	0.07020130164029	0	1	NaN	52	1	52	1	120	220	320	NaN	520	0.55796194402501	1	1	NaN	1734311.1879971	NaN	1734312.1714593	1734312.68802466
41	19	1	0	90	36.1581920903955	36.241610738255	8	0.266693664044142	2	1	6	NaN	1	3	0.07020130164029	0	1	NaN	53	1	53	1	120	220	320	NaN	520	0.618956175399944	2	0	NaN	1734314.054899	NaN	1734315.0384227	1734315.55497072
41	19	1	0	90	36.1581920903955	36.241610738255	17	0.566724036093801	2	5	2	NaN	1	3	0.07020130164029	0	1	NaN	54	1	54	1	120	220	320	NaN	520	0.277609475422651	1	1	NaN	1734316.9886547	NaN	1734317.9720263	1734318.48858692
41	19	1	0	90	36.1581920903955	36.241610738255	21	0.700070868115872	2	5	6	NaN	1	5	0.07020130164029	0	1	NaN	55	1	55	1	120	220	320	NaN	520	0.405439275549725	1	1	NaN	1734319.5889033	NaN	1734320.5723022	1734321.08885012
41	19	1	0	90	36.1581920903955	36.241610738255	19	0.633397452104837	2	6	2	NaN	1	4	0.07020130164029	0	1	NaN	56	1	56	1	120	220	320	NaN	520	0.304198027821258	1	1	NaN	1734322.3056864	NaN	1734323.2891522	1734323.80578857
41	19	1	0	90	36.1581920903955	36.241610738255	16	0.533387328088283	2	2	2	NaN	1	3	0.07020130164029	0	1	NaN	57	1	57	1	120	220	320	NaN	520	0.360366575652733	1	1	NaN	1734325.0894535	NaN	1734326.0728457	1734326.58939182
41	19	1	0	90	36.1581920903955	36.241610738255	25	0.833417700137943	2	12	5	NaN	2	4	0.07020130164029	0	1	NaN	58	1	58	1	120	220	320	NaN	520	0.676762727787718	2	1	NaN	1734327.7730089	NaN	1734328.7564186	1734329.27299077
41	19	1	0	90	36.1581920903955	36.241610738255	9	0.300030372049659	2	11	2	NaN	2	5	0.07020130164029	0	1	NaN	59	1	59	1	120	220	320	NaN	520	0.269041323801503	2	1	NaN	1734330.7733186	NaN	1734331.7567851	1734332.27327278
41	19	1	0	90	36.1581920903955	36.241610738255	11	0.366703788060695	2	10	5	NaN	2	4	0.07020130164029	0	1	NaN	60	1	60	1	120	220	320	NaN	520	0.373073779512197	1	0	NaN	1734333.3567921	NaN	1734334.3403081	1734334.85686932
41	19	1	0	90	36.1581920903955	36.241610738255	25	0.833417700137943	2	8	1	NaN	2	3	0.07020130164029	0	1	NaN	61	1	61	1	120	220	320	NaN	520	0.785589175531641	2	1	NaN	1734336.0405348	NaN	1734337.0239187	1734337.54046062
41	19	1	0	90	36.1581920903955	36.241610738255	7	0.233356956038624	2	10	1	NaN	2	4	0.07020130164029	0	1	NaN	62	1	62	1	120	220	320	NaN	520	1.03748597553931	2	1	NaN	1734339.1408361	NaN	1734340.1242049	1734340.64077192
41	19	1	0	90	36.1581920903955	36.241610738255	16	0.533387328088283	2	6	2	NaN	1	5	0.07020130164029	0	1	NaN	63	1	63	1	120	220	320	NaN	520	0.407049175584689	1	1	NaN	1734342.4911661	NaN	1734343.4745486	1734343.99110112
41	19	1	0	90	36.1581920903955	36.241610738255	21	0.700070868115872	2	7	5	NaN	2	3	0.07020130164029	0	1	NaN	64	2	1	1	120	220	320	NaN	520	0.70617609587498	2	1	NaN	1734350.391937	NaN	1734351.3753087	1734351.8918864
41	19	1	0	90	36.1581920903955	36.241610738255	20	0.666734160110354	2	4	5	NaN	1	4	0.07020130164029	0	1	NaN	65	2	2	1	120	220	320	NaN	520	0.376363727729768	1	1	NaN	1734353.4254315	NaN	1734354.4089513	1734354.92551217
41	19	1	0	90	36.1581920903955	36.241610738255	6	0.200020248033106	2	12	3	NaN	2	5	0.07020130164029	0	1	NaN	66	2	3	1	120	220	320	NaN	520	0.364263775525615	2	1	NaN	1734356.1258341	NaN	1734357.1092197	1734357.62577662
41	19	1	0	90	36.1581920903955	36.241610738255	15	0.500050620082766	2	9	1	NaN	2	5	0.07020130164029	0	1	NaN	67	2	4	1	120	220	320	NaN	520	0.280736123677343	2	1	NaN	1734358.8094304	NaN	1734359.7928142	1734360.30936468
41	19	1	0	90	36.1581920903955	36.241610738255	17	0.566724036093801	2	3	6	NaN	1	5	0.07020130164029	0	1	NaN	68	2	5	1	120	220	320	NaN	520	0.232216375414282	1	1	NaN	1734361.4096956	NaN	1734362.3930811	1734362.90961782
41	19	1	0	90	36.1581920903955	36.241610738255	15	0.500050620082766	2	3	2	NaN	1	4	0.07020130164029	0	1	NaN	69	2	6	1	120	220	320	NaN	520	0.330469575710595	1	1	NaN	1734363.9599409	NaN	1734364.9433213	1734365.45987662
41	19	1	0	90	36.1581920903955	36.241610738255	0	0	1	1	4	NaN	1	5	0.07020130164029	0	1	NaN	70	2	7	1	110	210	310	NaN	510	1.72775732772425	2	0	NaN	1734366.6101716	NaN	1734367.5935878	1734368.11013957
41	19	1	0	90	36.1581920903955	36.241610738255	17	0.566724036093801	2	9	4	NaN	2	5	0.07020130164029	0	1	NaN	71	2	8	1	120	220	320	NaN	520	1.24550272757187	2	1	NaN	1734370.6605911	NaN	1734371.6439809	1734372.16053837
41	19	1	0	90	36.1581920903955	36.241610738255	14	0.466713912077248	2	3	3	NaN	1	4	0.07020130164029	0	1	NaN	72	2	9	1	120	220	320	NaN	520	0.254530227743089	1	1	NaN	1734374.2276086	NaN	1734375.211002	1734375.72754977
41	19	1	0	90	36.1581920903955	36.241610738255	22	0.73340757612139	2	11	2	NaN	2	3	0.07020130164029	0	1	NaN	73	2	10	1	120	220	320	NaN	520	0.663810475729406	2	1	NaN	1734376.7945086	NaN	1734377.7779108	1734378.29446052
41	19	1	0	90	36.1581920903955	36.241610738255	18	0.600060744099319	2	8	5	NaN	2	5	0.07020130164029	0	1	NaN	74	2	11	1	120	220	320	NaN	520	0.407861275598407	1	0	NaN	1734379.7781599	NaN	1734380.7615482	1734381.27809232
41	19	1	0	90	36.1581920903955	36.241610738255	23	0.766744284126908	2	7	6	NaN	2	5	0.07020130164029	0	1	NaN	75	2	12	1	120	220	320	NaN	520	0.339032275602221	2	1	NaN	1734382.4950892	NaN	1734383.4784721	1734383.99502212
41	19	1	0	90	36.1581920903955	36.241610738255	14	0.466713912077248	2	11	4	NaN	2	5	0.07020130164029	0	1	NaN	76	2	13	1	120	220	320	NaN	520	0.625019427854568	2	1	NaN	1734385.1453391	NaN	1734386.1287471	1734386.64529277
41	19	1	0	90	36.1581920903955	36.241610738255	16	0.533387328088283	2	1	5	NaN	1	4	0.07020130164029	0	1	NaN	77	2	14	1	120	220	320	NaN	520	0.563125827582553	1	1	NaN	1734388.0788375	NaN	1734389.0623496	1734389.57890907
41	19	1	0	90	36.1581920903955	36.241610738255	6	0.200020248033106	2	9	3	NaN	2	4	0.07020130164029	0	1	NaN	78	2	15	1	120	220	320	NaN	520	1.19925974402577	2	1	NaN	1734390.962586	NaN	1734391.945981	1734392.46253266
41	19	1	0	90	36.1581920903955	36.241610738255	19	0.633397452104837	2	2	6	NaN	1	3	0.07020130164029	0	1	NaN	79	2	16	1	120	220	320	NaN	520	0.298427427653223	1	1	NaN	1734394.4795942	NaN	1734395.4629825	1734395.97954437
41	19	1	0	90	36.1581920903955	36.241610738255	21	0.700070868115872	2	10	6	NaN	2	3	0.07020130164029	0	1	NaN	80	2	17	1	120	220	320	NaN	520	0.281814231770113	2	1	NaN	1734397.2965311	NaN	1734398.2799428	1734398.79648877
41	19	1	0	90	36.1581920903955	36.241610738255	11	0.366703788060695	2	5	6	NaN	1	5	0.07020130164029	0	1	NaN	81	2	18	1	120	220	320	NaN	520	0.337235723622143	1	1	NaN	1734399.8967838	NaN	1734400.8801728	1734401.39673188
41	19	1	0	90	36.1581920903955	36.241610738255	8	0.266693664044142	2	6	5	NaN	1	5	0.07020130164029	0	1	NaN	82	2	19	1	120	220	320	NaN	520	0.271226727869362	1	1	NaN	1734402.5470265	NaN	1734403.53047	1734404.04700267
41	19	1	0	90	36.1581920903955	36.241610738255	9	0.300030372049659	2	10	2	NaN	2	3	0.07020130164029	0	1	NaN	83	2	20	1	120	220	320	NaN	520	0.239868927747011	1	0	NaN	1734405.1306609	NaN	1734406.1140338	1734406.63058507
41	19	1	0	90	36.1581920903955	36.241610738255	20	0.666734160110354	2	12	3	NaN	2	5	0.07020130164029	0	1	NaN	84	2	21	1	120	220	320	NaN	520	0.337600275641307	2	1	NaN	1734407.6808987	NaN	1734408.6642754	1734409.18083302
41	19	1	0	90	36.1581920903955	36.241610738255	10	0.333367080055177	2	3	5	NaN	1	5	0.07020130164029	0	1	NaN	85	2	22	1	120	220	320	NaN	520	0.254997375654057	1	1	NaN	1734410.331002	NaN	1734411.3145565	1734411.83109632
41	19	1	0	90	36.1581920903955	36.241610738255	20	0.666734160110354	2	8	4	NaN	2	4	0.07020130164029	0	1	NaN	86	2	23	1	120	220	320	NaN	520	0.352340775541961	2	1	NaN	1734412.8980859	NaN	1734413.8814763	1734414.39801322
41	19	1	0	90	36.1581920903955	36.241610738255	13	0.43337720407173	2	5	1	NaN	1	5	0.07020130164029	0	1	NaN	87	2	24	1	120	220	320	NaN	520	0.277199611300603	1	1	NaN	1734415.565008	NaN	1734416.5483762	1734417.06494029
41	19	1	0	90	36.1581920903955	36.241610738255	21	0.700070868115872	2	12	6	NaN	2	4	0.07020130164029	0	1	NaN	88	2	25	1	120	220	320	NaN	520	0.221263875486329	2	1	NaN	1734418.1652676	NaN	1734419.1486495	1734419.66519492
41	19	1	0	90	36.1581920903955	36.241610738255	12	0.400040496066213	2	5	3	NaN	1	4	0.07020130164029	0	1	NaN	89	2	26	1	120	220	320	NaN	520	1.2557126795873	1	1	NaN	1734420.6988376	NaN	1734421.6822259	1734422.19878172
41	19	1	0	90	36.1581920903955	36.241610738255	22	0.73340757612139	2	3	6	NaN	1	5	0.07020130164029	0	1	NaN	90	2	27	1	120	220	320	NaN	520	0.271899527637288	1	1	NaN	1734424.2824945	NaN	1734425.2659267	1734425.78247077
41	19	1	0	90	36.1581920903955	36.241610738255	8	0.266693664044142	2	1	1	NaN	1	3	0.07020130164029	0	1	NaN	91	2	28	1	120	220	320	NaN	520	0.535378875443712	1	1	NaN	1734426.8827931	NaN	1734427.8661591	1734428.38272052
41	19	1	0	90	36.1581920903955	36.241610738255	0	0	1	12	4	NaN	2	3	0.07020130164029	0	1	NaN	92	2	29	1	110	210	310	NaN	510	0.397313875611871	2	1	NaN	1734429.7330471	NaN	1734430.7164625	1734431.23299772
41	19	1	0	90	36.1581920903955	36.241610738255	0	0	1	7	5	NaN	2	5	0.07020130164029	0	1	NaN	93	2	30	1	110	210	310	NaN	510	0.472136875381693	1	0	NaN	1734432.4499912	NaN	1734433.4333891	1734433.94993972
41	19	1	0	90	36.1581920903955	36.241610738255	22	0.73340757612139	2	1	1	NaN	1	4	0.07020130164029	0	1	NaN	94	2	31	1	120	220	320	NaN	520	0.384830127703026	1	1	NaN	1734435.233598	NaN	1734436.2169954	1734436.73354637
41	19	1	0	90	36.1581920903955	36.241610738255	14	0.466713912077248	2	12	6	NaN	2	3	0.07020130164029	0	1	NaN	95	2	32	1	120	220	320	NaN	520	0.532541975611821	2	1	NaN	1734437.9338657	NaN	1734438.9172459	1734439.43381152
41	19	1	0	90	36.1581920903955	36.241610738255	20	0.666734160110354	2	1	2	NaN	1	4	0.07020130164029	0	1	NaN	96	2	33	1	120	220	320	NaN	520	0.345999431796372	1	1	NaN	1734440.7840164	NaN	1734441.7675355	1734442.28409517
41	19	1	0	90	36.1581920903955	36.241610738255	0	0	1	4	5	NaN	1	4	0.07020130164029	0	1	NaN	97	2	34	1	110	210	310	NaN	510	2.36702037556097	2	0	NaN	1734443.4510771	NaN	1734444.4344615	1734444.95100942
41	19	1	0	90	36.1581920903955	36.241610738255	24	0.800080992132425	2	8	2	NaN	2	4	0.07020130164029	0	1	NaN	98	2	35	1	120	220	320	NaN	520	0.371306123677641	1	0	NaN	1734448.1348676	NaN	1734449.1182673	1734449.63480488
41	19	1	0	90	36.1581920903955	36.241610738255	17	0.566724036093801	2	11	6	NaN	2	3	0.07020130164029	0	1	NaN	99	2	36	1	120	220	320	NaN	520	1.02410817565396	2	1	NaN	1734450.818445	NaN	1734451.8018509	1734452.31840952
41	19	1	0	90	36.1581920903955	36.241610738255	15	0.500050620082766	2	11	1	NaN	2	5	0.07020130164029	0	1	NaN	100	2	37	1	120	220	320	NaN	520	0.290152175584808	2	1	NaN	1734454.152134	NaN	1734455.1355226	1734455.65206352
41	19	1	0	90	36.1581920903955	36.241610738255	0	0	1	2	3	NaN	1	5	0.07020130164029	0	1	NaN	101	2	38	1	110	210	310	NaN	510	0.337466839933768	2	0	NaN	1734456.7690554	NaN	1734457.7524276	1734458.26898996
41	19	1	0	90	36.1581920903955	36.241610738255	21	0.700070868115872	2	1	2	NaN	1	3	0.07020130164029	0	1	NaN	102	2	39	1	120	220	320	NaN	520	0.375206275610253	1	1	NaN	1734459.4191779	NaN	1734460.4027309	1734460.91925212
41	19	1	0	90	36.1581920903955	36.241610738255	14	0.466713912077248	2	4	2	NaN	1	3	0.07020130164029	0	1	NaN	103	2	40	1	120	220	320	NaN	520	0.339244075585157	1	1	NaN	1734462.102943	NaN	1734463.086294	1734463.60284122
41	19	1	0	90	36.1581920903955	36.241610738255	0	0	1	9	1	NaN	2	3	0.07020130164029	0	1	NaN	104	2	41	1	110	210	310	NaN	510	0.273447979707271	1	0	NaN	1734464.7531449	NaN	1734465.7365637	1734466.25310652
41	19	1	0	90	36.1581920903955	36.241610738255	20	0.666734160110354	2	7	1	NaN	2	4	0.07020130164029	0	1	NaN	105	2	42	1	120	220	320	NaN	520	0.32142997556366	2	1	NaN	1734467.3366254	NaN	1734468.3201352	1734468.83669412
41	19	1	0	90	36.1581920903955	36.241610738255	20	0.666734160110354	2	10	1	NaN	2	3	0.07020130164029	0	1	NaN	106	2	43	1	120	220	320	NaN	520	0.320146127603948	2	1	NaN	1734469.9703514	NaN	1734470.9537405	1734471.47029327
41	19	1	0	90	36.1581920903955	36.241610738255	18	0.600060744099319	2	8	3	NaN	2	4	0.07020130164029	0	1	NaN	107	2	44	1	120	220	320	NaN	520	1.0862914796453	2	1	NaN	1734472.6039196	NaN	1734473.5873176	1734474.10387992
41	19	1	0	90	36.1581920903955	36.241610738255	10	0.333367080055177	2	9	4	NaN	2	5	0.07020130164029	0	1	NaN	108	2	45	1	120	220	320	NaN	520	0.678232275415212	2	1	NaN	1734476.0042639	NaN	1734476.9876692	1734477.50420832
41	19	1	0	90	36.1581920903955	36.241610738255	11	0.366703788060695	2	9	1	NaN	2	3	0.07020130164029	0	1	NaN	109	2	46	1	120	220	320	NaN	520	0.421525163343176	2	1	NaN	1734479.0045557	NaN	1734479.9879904	1734480.50450964
41	19	1	0	90	36.1581920903955	36.241610738255	21	0.700070868115872	2	2	5	NaN	1	4	0.07020130164029	0	1	NaN	110	2	47	1	120	220	320	NaN	520	0.120208175620064	1	1	NaN	1734481.7381375	NaN	1734482.7215606	1734483.23810762
41	19	1	0	90	36.1581920903955	36.241610738255	22	0.73340757612139	2	6	6	NaN	1	5	0.07020130164029	0	1	NaN	111	2	48	1	120	220	320	NaN	520	0.373924775514752	1	1	NaN	1734484.1883942	NaN	1734485.1717907	1734485.68834972
41	19	1	0	90	36.1581920903955	36.241610738255	19	0.633397452104837	2	5	6	NaN	1	3	0.07020130164029	0	1	NaN	112	2	49	1	120	220	320	NaN	520	0.650169975589961	1	1	NaN	1734486.8720128	NaN	1734487.8553992	1734488.37195132
41	19	1	0	90	36.1581920903955	36.241610738255	21	0.700070868115872	2	1	1	NaN	1	5	0.07020130164029	0	1	NaN	113	2	50	1	120	220	320	NaN	520	0.851304071489722	1	1	NaN	1734489.8388261	NaN	1734490.8223464	1734491.33889633
41	19	1	0	90	36.1581920903955	36.241610738255	18	0.600060744099319	2	9	1	NaN	2	4	0.07020130164029	0	1	NaN	114	2	51	1	120	220	320	NaN	520	0.404608775628731	1	0	NaN	1734493.005949	NaN	1734493.9893293	1734494.50588632
41	19	1	0	90	36.1581920903955	36.241610738255	11	0.366703788060695	2	3	5	NaN	1	5	0.07020130164029	0	1	NaN	115	2	52	1	120	220	320	NaN	520	1.04731087572873	1	1	NaN	1734495.7228959	NaN	1734496.7062663	1734497.22281712
41	19	1	0	90	36.1581920903955	36.241610738255	17	0.566724036093801	2	12	1	NaN	2	4	0.07020130164029	0	1	NaN	116	2	53	1	120	220	320	NaN	520	0.296304075513035	2	1	NaN	1734499.0898753	NaN	1734500.0732597	1734500.58980842
41	19	1	0	90	36.1581920903955	36.241610738255	0	0	1	3	2	NaN	1	4	0.07020130164029	0	1	NaN	117	2	54	1	110	210	310	NaN	510	0.255831175483763	1	1	NaN	1734501.7067686	NaN	1734502.6901874	1734503.20672962
41	19	1	0	90	36.1581920903955	36.241610738255	23	0.766744284126908	2	11	3	NaN	2	5	0.07020130164029	0	1	NaN	118	2	55	1	120	220	320	NaN	520	0.343845579540357	2	1	NaN	1734504.2903738	NaN	1734505.2737835	1734505.79032842
41	19	1	0	90	36.1581920903955	36.241610738255	14	0.466713912077248	2	7	2	NaN	2	4	0.07020130164029	0	1	NaN	119	2	56	1	120	220	320	NaN	520	1.89301093993708	1	0	NaN	1734506.9573189	NaN	1734507.9407249	1734508.45725416
41	19	1	0	90	36.1581920903955	36.241610738255	9	0.300030372049659	2	2	1	NaN	1	5	0.07020130164029	0	1	NaN	120	2	57	1	120	220	320	NaN	520	0.556437375489622	1	1	NaN	1734511.1577035	NaN	1734512.1411152	1734512.65766342
41	19	1	0	90	36.1581920903955	36.241610738255	15	0.500050620082766	2	9	1	NaN	2	4	0.07020130164029	0	1	NaN	121	2	58	1	120	220	320	NaN	520	0.377299427753314	2	1	NaN	1734514.0413375	NaN	1734515.0247203	1734515.54128407
41	19	1	0	90	36.1581920903955	36.241610738255	18	0.600060744099319	2	12	1	NaN	2	5	0.07020130164029	0	1	NaN	122	2	59	1	120	220	320	NaN	520	0.0126742755528539	2	1	NaN	1734516.7416255	NaN	1734517.725005	1734518.24154172
41	19	1	0	90	36.1581920903955	36.241610738255	13	0.43337720407173	2	1	3	NaN	1	4	0.07020130164029	0	1	NaN	123	2	60	1	120	220	320	NaN	520	0.36762667959556	2	0	NaN	1734519.0751759	NaN	1734520.0585506	1734520.57510602
41	19	1	0	90	36.1581920903955	36.241610738255	16	0.533387328088283	2	11	3	NaN	2	3	0.07020130164029	0	1	NaN	124	2	61	1	120	220	320	NaN	520	0.291803823783994	2	1	NaN	1734521.7587699	NaN	1734522.7421607	1734523.25870508
41	19	1	0	90	36.1581920903955	36.241610738255	6	0.200020248033106	2	3	5	NaN	1	4	0.07020130164029	0	1	NaN	125	2	62	1	120	220	320	NaN	520	0.259532427648082	1	1	NaN	1734524.359035	NaN	1734525.3424063	1734525.85896367
41	19	1	0	90	36.1581920903955	36.241610738255	17	0.566724036093801	2	1	6	NaN	1	5	0.07020130164029	0	1	NaN	126	2	63	1	120	220	320	NaN	520	0.251921375514939	1	1	NaN	1734526.9425852	NaN	1734527.9260104	1734528.44254272
41	19	1	0	90	36.1581920903955	36.241610738255	20	0.666734160110354	2	2	1	NaN	1	4	0.07020130164029	0	1	NaN	127	3	1	1	120	220	320	NaN	520	0.293099275557324	1	1	NaN	1734549.2613275	NaN	1734550.244864	1734550.76141302
41	19	1	0	90	36.1581920903955	36.241610738255	17	0.566724036093801	2	4	4	NaN	1	4	0.07020130164029	0	1	NaN	128	3	2	1	120	220	320	NaN	520	0.268343075411394	1	1	NaN	1734551.8783764	NaN	1734552.86186	1734553.37833722
41	19	1	0	90	36.1581920903955	36.241610738255	23	0.766744284126908	2	5	6	NaN	1	3	0.07020130164029	0	1	NaN	129	3	3	1	120	220	320	NaN	520	0.38854867964983	1	1	NaN	1734554.4619568	NaN	1734555.4453682	1734555.96192252
41	19	1	0	90	36.1581920903955	36.241610738255	6	0.200020248033106	2	8	3	NaN	2	4	0.07020130164029	0	1	NaN	130	3	4	1	120	220	320	NaN	520	0.0954705278854817	2	1	NaN	1734557.178916	NaN	1734558.1623065	1734558.67884587
41	19	1	0	90	36.1581920903955	36.241610738255	8	0.266693664044142	2	6	6	NaN	1	3	0.07020130164029	0	1	NaN	131	3	5	1	120	220	320	NaN	520	0.254456475609913	1	1	NaN	1734559.5956753	NaN	1734560.5792096	1734561.09575972
41	19	1	0	90	36.1581920903955	36.241610738255	22	0.73340757612139	2	7	6	NaN	2	5	0.07020130164029	0	1	NaN	132	3	6	1	120	220	320	NaN	520	0.407578975427896	2	1	NaN	1734562.1626558	NaN	1734563.1461263	1734563.66268082
41	19	1	0	90	36.1581920903955	36.241610738255	24	0.800080992132425	2	5	2	NaN	1	3	0.07020130164029	0	1	NaN	133	3	7	1	120	220	320	NaN	520	0.0899165275041014	1	1	NaN	1734564.8963406	NaN	1734565.8797335	1734566.39627807
41	19	1	0	90	36.1581920903955	36.241610738255	6	0.200020248033106	2	5	5	NaN	1	4	0.07020130164029	0	1	NaN	134	3	8	1	120	220	320	NaN	520	0.393776227720082	1	1	NaN	1734567.2965839	NaN	1734568.2799619	1734568.79651797
41	19	1	0	90	36.1581920903955	36.241610738255	24	0.800080992132425	2	9	3	NaN	2	3	0.07020130164029	0	1	NaN	135	3	9	1	120	220	320	NaN	520	0.444519775686786	1	0	NaN	1734570.0134879	NaN	1734570.9968076	1734571.51344262
41	19	1	0	90	36.1581920903955	36.241610738255	6	0.200020248033106	2	4	4	NaN	1	4	0.07020130164029	0	1	NaN	136	3	10	1	120	220	320	NaN	520	0.421804075594991	2	0	NaN	1734572.7804325	NaN	1734573.7638606	1734574.28038712
41	19	1	0	90	36.1581920903955	36.241610738255	10	0.333367080055177	2	12	2	NaN	2	4	0.07020130164029	0	1	NaN	137	3	11	1	120	220	320	NaN	520	0.0104227755218744	2	1	NaN	1734575.5139165	NaN	1734576.4974678	1734577.01398652
41	19	1	0	90	36.1581920903955	36.241610738255	6	0.200020248033106	2	3	3	NaN	1	3	0.07020130164029	0	1	NaN	138	3	12	1	120	220	320	NaN	520	0.235400627600029	1	1	NaN	1734578.2309444	NaN	1734579.2143636	1734579.73091307
41	19	1	0	90	36.1581920903955	36.241610738255	6	0.200020248033106	2	4	4	NaN	1	4	0.07020130164029	0	1	NaN	139	3	13	1	120	220	320	NaN	520	0.237083379644901	1	1	NaN	1734580.781188	NaN	1734581.7646258	1734582.28117702
41	19	1	0	90	36.1581920903955	36.241610738255	0	0	1	5	3	NaN	1	3	0.07020130164029	0	1	NaN	140	3	14	1	110	210	310	NaN	510	0.479142675641924	2	0	NaN	1734583.3314703	NaN	1734584.3148699	1734584.83142702
41	19	1	0	90	36.1581920903955	36.241610738255	20	0.666734160110354	2	12	2	NaN	2	3	0.07020130164029	0	1	NaN	141	3	15	1	120	220	320	NaN	520	0.334854875458404	2	1	NaN	1734586.1317984	NaN	1734587.115154	1734587.63169402
41	19	1	0	90	36.1581920903955	36.241610738255	16	0.533387328088283	2	10	6	NaN	2	5	0.07020130164029	0	1	NaN	142	3	16	1	120	220	320	NaN	520	0.39659749600105	2	1	NaN	1734588.7820055	NaN	1734589.7653912	1734590.2819685
41	19	1	0	90	36.1581920903955	36.241610738255	25	0.833417700137943	2	9	6	NaN	2	3	0.07020130164029	0	1	NaN	143	3	17	1	120	220	320	NaN	520	0.423386323731393	2	1	NaN	1734591.4989471	NaN	1734592.4823294	1734592.99888408
41	19	1	0	90	36.1581920903955	36.241610738255	25	0.833417700137943	2	11	1	NaN	2	3	0.07020130164029	0	1	NaN	144	3	18	1	120	220	320	NaN	520	0.394163323566318	2	1	NaN	1734594.2324123	NaN	1734595.2159335	1734595.73248748
41	19	1	0	90	36.1581920903955	36.241610738255	12	0.400040496066213	2	1	4	NaN	1	4	0.07020130164029	0	1	NaN	145	3	19	1	120	220	320	NaN	520	0.346958875423297	1	1	NaN	1734597.1994897	NaN	1734598.1828972	1734598.69945192
41	19	1	0	90	36.1581920903955	36.241610738255	6	0.200020248033106	2	1	5	NaN	1	4	0.07020130164029	0	1	NaN	146	3	20	1	120	220	320	NaN	520	0.439894023584202	2	0	NaN	1734599.8664262	NaN	1734600.8498172	1734601.36637098
41	19	1	0	90	36.1581920903955	36.241610738255	7	0.233356956038624	2	1	2	NaN	1	3	0.07020130164029	0	1	NaN	147	3	21	1	120	220	320	NaN	520	0.366329627810046	1	1	NaN	1734602.6999103	NaN	1734603.683446	1734604.19999317
41	19	1	0	90	36.1581920903955	36.241610738255	11	0.366703788060695	2	11	5	NaN	2	4	0.07020130164029	0	1	NaN	148	3	22	1	120	220	320	NaN	520	0.0103933275677264	2	1	NaN	1734605.3835192	NaN	1734606.3670327	1734606.88358087
41	19	1	0	90	36.1581920903955	36.241610738255	16	0.533387328088283	2	4	6	NaN	1	4	0.07020130164029	0	1	NaN	149	3	23	1	120	220	320	NaN	520	0.301495175575837	1	1	NaN	1734607.7171059	NaN	1734608.700605	1734609.21714422
41	19	1	0	90	36.1581920903955	36.241610738255	7	0.233356956038624	2	4	4	NaN	1	4	0.07020130164029	0	1	NaN	150	3	24	1	120	220	320	NaN	520	0.476467575645074	1	1	NaN	1734610.3341451	NaN	1734611.3175222	1734611.83407842
41	19	1	0	90	36.1581920903955	36.241610738255	9	0.300030372049659	2	9	2	NaN	2	4	0.07020130164029	0	1	NaN	151	3	25	1	120	220	320	NaN	520	0.372228000080213	2	1	NaN	1734613.1344094	NaN	1734614.1178031	1734614.6343573
41	19	1	0	90	36.1581920903955	36.241610738255	9	0.300030372049659	2	2	2	NaN	1	4	0.07020130164029	0	1	NaN	152	3	26	1	120	220	320	NaN	520	0.280356779694557	1	1	NaN	1734615.817882	NaN	1734616.8013831	1734617.31796532
41	19	1	0	90	36.1581920903955	36.241610738255	14	0.466713912077248	2	11	3	NaN	2	5	0.07020130164029	0	1	NaN	153	3	27	1	120	220	320	NaN	520	0.295975375454873	2	1	NaN	1734618.4181173	NaN	1734619.4016834	1734619.91820722
41	19	1	0	90	36.1581920903955	36.241610738255	19	0.633397452104837	2	9	5	NaN	2	5	0.07020130164029	0	1	NaN	154	3	28	1	120	220	320	NaN	520	0.359350927639753	2	1	NaN	1734621.0350532	NaN	1734622.0185599	1734622.53513087
41	19	1	0	90	36.1581920903955	36.241610738255	18	0.600060744099319	2	12	2	NaN	2	4	0.07020130164029	0	1	NaN	155	3	29	1	120	220	320	NaN	520	0.292185875587165	2	1	NaN	1734623.7019742	NaN	1734624.685496	1734625.20205792
41	19	1	0	90	36.1581920903955	36.241610738255	25	0.833417700137943	2	5	2	NaN	1	3	0.07020130164029	0	1	NaN	156	3	30	1	120	220	320	NaN	520	0.40398602350615	1	1	NaN	1734626.3022641	NaN	1734627.2857431	1734627.80230858
41	19	1	0	90	36.1581920903955	36.241610738255	22	0.73340757612139	2	9	5	NaN	2	5	0.07020130164029	0	1	NaN	157	3	31	1	120	220	320	NaN	520	0.28698557568714	2	1	NaN	1734629.0192719	NaN	1734630.002711	1734630.51924452
41	19	1	0	90	36.1581920903955	36.241610738255	21	0.700070868115872	2	11	5	NaN	2	4	0.07020130164029	0	1	NaN	158	3	32	1	120	220	320	NaN	520	0.478953975485638	1	0	NaN	1734631.6195538	NaN	1734632.6029373	1734633.11949132
41	19	1	0	90	36.1581920903955	36.241610738255	19	0.633397452104837	2	7	4	NaN	2	5	0.07020130164029	0	1	NaN	159	3	33	1	120	220	320	NaN	520	0.366917627630755	2	1	NaN	1734634.4198107	NaN	1734635.4032217	1734635.91977807
41	19	1	0	90	36.1581920903955	36.241610738255	16	0.533387328088283	2	10	5	NaN	2	4	0.07020130164029	0	1	NaN	160	3	34	1	120	220	320	NaN	520	0.234976627863944	1	0	NaN	1734637.1033726	NaN	1734638.086807	1734638.60336817
41	19	1	0	90	36.1581920903955	36.241610738255	21	0.700070868115872	2	6	5	NaN	1	3	0.07020130164029	0	1	NaN	161	3	35	1	120	220	320	NaN	520	0.748677223687991	1	1	NaN	1734639.6537681	NaN	1734640.6370698	1734641.15361228
41	19	1	0	90	36.1581920903955	36.241610738255	19	0.633397452104837	2	12	5	NaN	2	4	0.07020130164029	0	1	NaN	162	3	36	1	120	220	320	NaN	520	0.337795379804447	2	1	NaN	1734642.7206637	NaN	1734643.7040285	1734644.22058942
41	19	1	0	90	36.1581920903955	36.241610738255	17	0.566724036093801	2	7	1	NaN	2	5	0.07020130164029	0	1	NaN	163	3	37	1	120	220	320	NaN	520	0.343889875570312	2	1	NaN	1734645.3709141	NaN	1734646.3542428	1734646.87084172
41	19	1	0	90	36.1581920903955	36.241610738255	24	0.800080992132425	2	4	1	NaN	1	5	0.07020130164029	0	1	NaN	164	3	38	1	120	220	320	NaN	520	0.372688127681613	1	1	NaN	1734648.0378144	NaN	1734649.0212217	1734649.53777727
41	19	1	0	90	36.1581920903955	36.241610738255	7	0.233356956038624	2	2	5	NaN	1	5	0.07020130164029	0	1	NaN	165	3	39	1	120	220	320	NaN	520	0.424928175518289	1	1	NaN	1734650.7213034	NaN	1734651.7048333	1734652.22138622
41	19	1	0	90	36.1581920903955	36.241610738255	24	0.800080992132425	2	7	6	NaN	2	5	0.07020130164029	0	1	NaN	166	3	40	1	120	220	320	NaN	520	0.245667727664113	2	1	NaN	1734653.8050447	NaN	1734654.7884483	1734655.30501157
41	19	1	0	90	36.1581920903955	36.241610738255	16	0.533387328088283	2	12	3	NaN	2	3	0.07020130164029	0	1	NaN	167	3	41	1	120	220	320	NaN	520	0.270692127756774	2	1	NaN	1734656.3719909	NaN	1734657.3553884	1734657.87192947
41	19	1	0	90	36.1581920903955	36.241610738255	25	0.833417700137943	2	10	1	NaN	2	5	0.07020130164029	0	1	NaN	168	3	42	1	120	220	320	NaN	520	0.0104223317466676	2	1	NaN	1734658.9555809	NaN	1734659.9389592	1734660.45552027
41	19	1	0	90	36.1581920903955	36.241610738255	8	0.266693664044142	2	10	4	NaN	2	4	0.07020130164029	0	1	NaN	169	3	43	1	120	220	320	NaN	520	0.457414475735277	2	1	NaN	1734661.2891172	NaN	1734662.2724335	1734662.78907592
41	19	1	0	90	36.1581920903955	36.241610738255	10	0.333367080055177	2	1	1	NaN	1	5	0.07020130164029	0	1	NaN	170	3	44	1	120	220	320	NaN	520	0.375784479547292	1	1	NaN	1734664.3226305	NaN	1734665.3061572	1734665.82271122
41	19	1	0	90	36.1581920903955	36.241610738255	0	0	1	9	3	NaN	2	5	0.07020130164029	0	1	NaN	171	3	45	1	110	210	310	NaN	510	0.0102511958684772	1	0	NaN	1734667.0062228	NaN	1734667.9897638	1734668.5063118
41	19	1	0	90	36.1581920903955	36.241610738255	24	0.800080992132425	2	3	1	NaN	1	5	0.07020130164029	0	1	NaN	172	3	46	1	120	220	320	NaN	520	0.487224227748811	2	0	NaN	1734669.3232658	NaN	1734670.3066412	1734670.82320297
41	19	1	0	90	36.1581920903955	36.241610738255	20	0.666734160110354	2	7	4	NaN	2	5	0.07020130164029	0	1	NaN	173	3	47	1	120	220	320	NaN	520	0.358922075480223	2	1	NaN	1734672.1234193	NaN	1734673.1069282	1734673.62348182
41	19	1	0	90	36.1581920903955	36.241610738255	19	0.633397452104837	2	11	5	NaN	2	3	0.07020130164029	0	1	NaN	174	3	48	1	120	220	320	NaN	520	0.283336775610223	2	1	NaN	1734674.8071015	NaN	1734675.7905194	1734676.30707442
41	19	1	0	90	36.1581920903955	36.241610738255	8	0.266693664044142	2	8	4	NaN	2	5	0.07020130164029	0	1	NaN	175	3	49	1	120	220	320	NaN	520	0.330909823533148	1	0	NaN	1734677.4074141	NaN	1734678.3907908	1734678.90732828
41	19	1	0	90	36.1581920903955	36.241610738255	13	0.43337720407173	2	9	5	NaN	2	5	0.07020130164029	0	1	NaN	176	3	50	1	120	220	320	NaN	520	0.264233927708119	1	0	NaN	1734680.0741873	NaN	1734681.0577533	1734681.57425697
41	19	1	0	90	36.1581920903955	36.241610738255	7	0.233356956038624	2	6	3	NaN	1	3	0.07020130164029	0	1	NaN	177	3	51	1	120	220	320	NaN	520	0.25668232771568	1	1	NaN	1734682.6579038	NaN	1734683.6412996	1734684.15784877
41	19	1	0	90	36.1581920903955	36.241610738255	6	0.200020248033106	2	1	2	NaN	1	4	0.07020130164029	0	1	NaN	178	3	52	1	120	220	320	NaN	520	0.338009075494483	1	1	NaN	1734685.2248196	NaN	1734686.2082113	1734686.72475622
41	19	1	0	90	36.1581920903955	36.241610738255	23	0.766744284126908	2	2	2	NaN	1	4	0.07020130164029	0	1	NaN	179	3	53	1	120	220	320	NaN	520	0.287762675434351	1	1	NaN	1734687.8750715	NaN	1734688.8584952	1734689.37501892
41	19	1	0	90	36.1581920903955	36.241610738255	0	0	1	12	4	NaN	2	5	0.07020130164029	0	1	NaN	180	3	54	1	110	210	310	NaN	510	0.407407223712653	2	1	NaN	1734690.4753551	NaN	1734691.4587177	1734691.97527278
41	19	1	0	90	36.1581920903955	36.241610738255	10	0.333367080055177	2	9	4	NaN	2	4	0.07020130164029	0	1	NaN	181	3	55	1	120	220	320	NaN	520	0.234167523682117	1	0	NaN	1734693.1922577	NaN	1734694.1756896	1734694.69220488
41	19	1	0	90	36.1581920903955	36.241610738255	0	0	1	4	6	NaN	1	3	0.07020130164029	0	1	NaN	182	3	56	1	110	210	310	NaN	510	0.299788523698226	1	1	NaN	1734695.7425206	NaN	1734696.72596	1734697.24245718
41	19	1	0	90	36.1581920903955	36.241610738255	19	0.633397452104837	2	2	5	NaN	1	4	0.07020130164029	0	1	NaN	183	3	57	1	120	220	320	NaN	520	0.0104066755156964	1	1	NaN	1734698.359355	NaN	1734699.3428363	1734699.85938952
41	19	1	0	90	36.1581920903955	36.241610738255	6	0.200020248033106	2	8	2	NaN	2	4	0.07020130164029	0	1	NaN	184	3	58	1	120	220	320	NaN	520	0.357759727630764	1	0	NaN	1734700.6930887	NaN	1734701.676396	1734702.19295357
41	19	1	0	90	36.1581920903955	36.241610738255	12	0.400040496066213	2	10	3	NaN	2	5	0.07020130164029	0	1	NaN	185	3	59	1	120	220	320	NaN	520	0.354155244072899	2	1	NaN	1734703.3766027	NaN	1734704.3600174	1734704.87654416
41	19	1	0	90	36.1581920903955	36.241610738255	11	0.366703788060695	2	1	1	NaN	1	3	0.07020130164029	0	1	NaN	186	3	60	1	120	220	320	NaN	520	0.0869802755769342	1	1	NaN	1734706.0435318	NaN	1734707.0269284	1734707.54347482
41	19	1	0	90	36.1581920903955	36.241610738255	15	0.500050620082766	2	6	5	NaN	1	3	0.07020130164029	0	1	NaN	187	3	61	1	120	220	320	NaN	520	0.326699327677488	1	1	NaN	1734708.4437004	NaN	1734709.4271712	1734709.94370227
41	19	1	0	90	36.1581920903955	36.241610738255	22	0.73340757612139	2	10	3	NaN	2	3	0.07020130164029	0	1	NaN	188	3	62	1	120	220	320	NaN	520	0.452407843898982	1	0	NaN	1734711.0939239	NaN	1734712.0774054	1734712.59397056
41	19	1	0	90	36.1581920903955	36.241610738255	12	0.400040496066213	2	10	3	NaN	2	4	0.07020130164029	0	1	NaN	189	3	63	1	120	220	320	NaN	520	0.237548775505275	2	1	NaN	1734713.8609602	NaN	1734714.844362	1734715.36091462
41	19	1	0	90	36.1581920903955	36.241610738255	19	0.633397452104837	2	4	6	NaN	1	5	0.07020130164029	0	1	NaN	190	4	1	1	120	220	320	NaN	520	0.346519000129774	1	1	NaN	1734727.9123035	NaN	1734728.8957416	1734729.4122948
41	19	1	0	90	36.1581920903955	36.241610738255	25	0.833417700137943	2	2	6	NaN	1	3	0.07020130164029	0	1	NaN	191	4	2	1	120	220	320	NaN	520	0.871570875635371	2	0	NaN	1734730.5792666	NaN	1734731.5626615	1734732.07920912
41	19	1	0	90	36.1581920903955	36.241610738255	20	0.666734160110354	2	1	4	NaN	1	5	0.07020130164029	0	1	NaN	192	4	3	1	120	220	320	NaN	520	0.423106027534232	1	1	NaN	1734733.7794439	NaN	1734734.7629782	1734735.27953567
41	19	1	0	90	36.1581920903955	36.241610738255	12	0.400040496066213	2	7	6	NaN	2	4	0.07020130164029	0	1	NaN	193	4	4	1	120	220	320	NaN	520	0.929343275725842	2	1	NaN	1734736.51318	NaN	1734737.4965863	1734738.01313782
41	19	1	0	90	36.1581920903955	36.241610738255	17	0.566724036093801	2	8	2	NaN	2	5	0.07020130164029	0	1	NaN	194	4	5	1	120	220	320	NaN	520	0.383028075564653	2	1	NaN	1734739.7635187	NaN	1734740.7469001	1734741.26344772
41	19	1	0	90	36.1581920903955	36.241610738255	0	0	1	3	5	NaN	1	5	0.07020130164029	0	1	NaN	195	4	6	1	110	210	310	NaN	510	1.05276022781618	1	1	NaN	1734744.2139266	NaN	1734745.1973371	1734745.71388787
41	19	1	0	90	36.1581920903955	36.241610738255	24	0.800080992132425	2	2	6	NaN	1	3	0.07020130164029	0	1	NaN	196	4	7	1	120	220	320	NaN	520	0.74165107565932	1	1	NaN	1734747.5809663	NaN	1734748.5643464	1734749.08088172
41	19	1	0	90	36.1581920903955	36.241610738255	12	0.400040496066213	2	4	2	NaN	1	5	0.07020130164029	0	1	NaN	197	4	8	1	120	220	320	NaN	520	0.363679775502533	1	1	NaN	1734750.6312381	NaN	1734751.6146169	1734752.13118882
41	19	1	0	90	36.1581920903955	36.241610738255	14	0.466713912077248	2	4	6	NaN	1	4	0.07020130164029	0	1	NaN	198	4	9	1	120	220	320	NaN	520	0.287862875498831	1	1	NaN	1734753.3147595	NaN	1734754.2982424	1734754.81477482
41	19	1	0	90	36.1581920903955	36.241610738255	19	0.633397452104837	2	7	2	NaN	2	4	0.07020130164029	0	1	NaN	199	4	10	1	120	220	320	NaN	520	0.327787575544789	2	1	NaN	1734755.9150863	NaN	1734756.898545	1734757.41503882
41	19	1	0	90	36.1581920903955	36.241610738255	15	0.500050620082766	2	11	4	NaN	2	5	0.07020130164029	0	1	NaN	200	4	11	1	120	220	320	NaN	520	0.333232427714393	2	1	NaN	1734758.5653544	NaN	1734759.548751	1734760.06530207
41	19	1	0	90	36.1581920903955	36.241610738255	10	0.333367080055177	2	3	1	NaN	1	4	0.07020130164029	0	1	NaN	201	4	12	1	120	220	320	NaN	520	0.267164375400171	1	1	NaN	1734761.2156317	NaN	1734762.1989968	1734762.71556112
41	19	1	0	90	36.1581920903955	36.241610738255	0	0	1	11	2	NaN	2	5	0.07020130164029	0	1	NaN	202	4	13	1	110	210	310	NaN	510	0.691670327680185	2	1	NaN	1734763.7992002	NaN	1734764.7825902	1734765.29916517
41	19	1	0	90	36.1581920903955	36.241610738255	21	0.700070868115872	2	5	1	NaN	1	4	0.07020130164029	0	1	NaN	203	4	14	1	120	220	320	NaN	520	0.675778227625415	1	1	NaN	1734767.1828709	NaN	1734768.1662662	1734768.68281527
41	19	1	0	90	36.1581920903955	36.241610738255	15	0.500050620082766	2	2	3	NaN	1	4	0.07020130164029	0	1	NaN	204	4	15	1	120	220	320	NaN	520	0.436456775525585	2	0	NaN	1734770.1664795	NaN	1734771.149871	1734771.66644122
41	19	1	0	90	36.1581920903955	36.241610738255	25	0.833417700137943	2	3	4	NaN	1	3	0.07020130164029	0	1	NaN	205	4	16	1	120	220	320	NaN	520	0.0103896276559681	1	1	NaN	1734772.9166291	NaN	1734773.9001619	1734774.41673207
41	19	1	0	90	36.1581920903955	36.241610738255	13	0.43337720407173	2	3	1	NaN	1	5	0.07020130164029	0	1	NaN	206	4	17	1	120	220	320	NaN	520	0.352541875559837	1	1	NaN	1734775.2503353	NaN	1734776.2337436	1734776.75026942
41	19	1	0	90	36.1581920903955	36.241610738255	11	0.366703788060695	2	12	3	NaN	2	4	0.07020130164029	0	1	NaN	207	4	18	1	120	220	320	NaN	520	0.0103927275631577	2	1	NaN	1734777.9171243	NaN	1734778.9006402	1734779.41720137
41	19	1	0	90	36.1581920903955	36.241610738255	8	0.266693664044142	2	4	2	NaN	1	5	0.07020130164029	0	1	NaN	208	4	19	1	120	220	320	NaN	520	0.424579375656322	1	1	NaN	1734780.2340157	NaN	1734781.2175524	1734781.73408782
41	19	1	0	90	36.1581920903955	36.241610738255	8	0.266693664044142	2	11	3	NaN	2	3	0.07020130164029	0	1	NaN	209	4	20	1	120	220	320	NaN	520	0.2661423755344	2	1	NaN	1734782.9844124	NaN	1734783.9677991	1734784.48435792
41	19	1	0	90	36.1581920903955	36.241610738255	14	0.466713912077248	2	2	4	NaN	1	3	0.07020130164029	0	1	NaN	210	4	21	1	120	220	320	NaN	520	0.330515127629042	2	0	NaN	1734785.5680132	NaN	1734786.5514231	1734787.06795387
41	19	1	0	90	36.1581920903955	36.241610738255	15	0.500050620082766	2	10	3	NaN	2	4	0.07020130164029	0	1	NaN	211	4	22	1	120	220	320	NaN	520	3.04057787545025	2	1	NaN	1734788.2182587	NaN	1734789.2016502	1734789.71821552
41	19	1	0	90	36.1581920903955	36.241610738255	18	0.600060744099319	2	4	6	NaN	1	5	0.07020130164029	0	1	NaN	212	4	23	1	120	220	320	NaN	520	0.337123275501654	1	1	NaN	1734793.5853296	NaN	1734794.5688561	1734795.08540972
41	19	1	0	90	36.1581920903955	36.241610738255	0	0	1	6	5	NaN	1	3	0.07020130164029	0	1	NaN	213	4	24	1	110	210	310	NaN	510	1.07901527546346	2	0	NaN	1734796.2356274	NaN	1734797.2191021	1734797.73565822
41	19	1	0	90	36.1581920903955	36.241610738255	9	0.300030372049659	2	9	3	NaN	2	3	0.07020130164029	0	1	NaN	214	4	25	1	120	220	320	NaN	520	0.286870123585686	2	1	NaN	1734799.6360588	NaN	1734800.6194794	1734801.13599278
41	19	1	0	90	36.1581920903955	36.241610738255	11	0.366703788060695	2	4	2	NaN	1	5	0.07020130164029	0	1	NaN	215	4	26	1	120	220	320	NaN	520	0.326393475756049	1	1	NaN	1734802.2363221	NaN	1734803.2196917	1734803.73625642
41	19	1	0	90	36.1581920903955	36.241610738255	12	0.400040496066213	2	3	3	NaN	1	4	0.07020130164029	0	1	NaN	216	4	27	1	120	220	320	NaN	520	0.308099175570533	1	1	NaN	1734804.8865723	NaN	1734805.8699688	1734806.38650902
41	19	1	0	90	36.1581920903955	36.241610738255	11	0.366703788060695	2	4	6	NaN	1	3	0.07020130164029	0	1	NaN	217	4	28	1	120	220	320	NaN	520	0.29892432782799	1	1	NaN	1734807.5202798	NaN	1734808.5035452	1734809.02010477
41	19	1	0	90	36.1581920903955	36.241610738255	14	0.466713912077248	2	5	4	NaN	1	3	0.07020130164029	0	1	NaN	218	4	29	1	120	220	320	NaN	520	0.233580875676125	1	1	NaN	1734810.1369536	NaN	1734811.1204876	1734811.63703042
41	19	1	0	90	36.1581920903955	36.241610738255	7	0.233356956038624	2	10	3	NaN	2	4	0.07020130164029	0	1	NaN	219	4	30	1	120	220	320	NaN	520	1.0644918277394	2	1	NaN	1734812.7540454	NaN	1734813.7373963	1734814.25395387
41	19	1	0	90	36.1581920903955	36.241610738255	21	0.700070868115872	2	8	1	NaN	2	5	0.07020130164029	0	1	NaN	220	4	31	1	120	220	320	NaN	520	0.217438175575808	1	0	NaN	1734816.1375503	NaN	1734817.1210751	1734817.63762602
41	19	1	0	90	36.1581920903955	36.241610738255	11	0.366703788060695	2	2	2	NaN	1	5	0.07020130164029	0	1	NaN	221	4	32	1	120	220	320	NaN	520	0.0103892276529223	1	1	NaN	1734818.8045747	NaN	1734819.7879862	1734820.30454087
41	19	1	0	90	36.1581920903955	36.241610738255	13	0.43337720407173	2	2	4	NaN	1	5	0.07020130164029	0	1	NaN	222	4	33	1	120	220	320	NaN	520	0.0103906276635826	1	1	NaN	1734821.1381776	NaN	1734822.12159	1734822.63810647
41	19	1	0	90	36.1581920903955	36.241610738255	16	0.533387328088283	2	3	4	NaN	1	4	0.07020130164029	0	1	NaN	223	4	34	1	120	220	320	NaN	520	0.587051275419071	2	0	NaN	1734823.4717191	NaN	1734824.455113	1734824.97166602
41	19	1	0	90	36.1581920903955	36.241610738255	23	0.766744284126908	2	12	1	NaN	2	3	0.07020130164029	0	1	NaN	224	4	35	1	120	220	320	NaN	520	0.470641375519335	2	1	NaN	1734826.3720241	NaN	1734827.3554184	1734827.87195362
41	19	1	0	90	36.1581920903955	36.241610738255	25	0.833417700137943	2	11	1	NaN	2	5	0.07020130164029	0	1	NaN	225	4	36	1	120	220	320	NaN	520	0.0231242754962295	2	1	NaN	1734829.1556167	NaN	1734830.139012	1734830.65555852
41	19	1	0	90	36.1581920903955	36.241610738255	13	0.43337720407173	2	2	4	NaN	1	5	0.07020130164029	0	1	NaN	226	4	37	1	120	220	320	NaN	520	0.225418175570667	1	1	NaN	1734831.4891815	NaN	1734832.4725732	1734832.98912882
41	19	1	0	90	36.1581920903955	36.241610738255	0	0	1	6	5	NaN	1	5	0.07020130164029	0	1	NaN	227	4	38	1	110	210	310	NaN	510	0.243756827665493	1	1	NaN	1734834.0227004	NaN	1734835.0061463	1734835.52271297
41	19	1	0	90	36.1581920903955	36.241610738255	9	0.300030372049659	2	11	3	NaN	2	4	0.07020130164029	0	1	NaN	228	4	39	1	120	220	320	NaN	520	0.293294727569446	2	1	NaN	1734836.5896566	NaN	1734837.5730759	1734838.08963397
41	19	1	0	90	36.1581920903955	36.241610738255	23	0.766744284126908	2	9	5	NaN	2	3	0.07020130164029	0	1	NaN	229	4	40	1	120	220	320	NaN	520	0.0104073756374419	1	0	NaN	1734839.3899582	NaN	1734840.3733434	1734840.88991102
41	19	1	0	90	36.1581920903955	36.241610738255	10	0.333367080055177	2	10	4	NaN	2	4	0.07020130164029	0	1	NaN	230	4	41	1	120	220	320	NaN	520	0.32771902368404	2	1	NaN	1734841.7068524	NaN	1734842.6902457	1734843.20679278
41	19	1	0	90	36.1581920903955	36.241610738255	6	0.200020248033106	2	7	2	NaN	2	4	0.07020130164029	0	1	NaN	231	4	42	1	120	220	320	NaN	520	0.357626323588192	1	0	NaN	1734844.3571169	NaN	1734845.3405067	1734845.85705108
41	19	1	0	90	36.1581920903955	36.241610738255	19	0.633397452104837	2	1	2	NaN	1	5	0.07020130164029	0	1	NaN	232	4	43	1	120	220	320	NaN	520	0.0103936279192567	1	1	NaN	1734847.024045	NaN	1734848.0074367	1734848.52398777
41	19	1	0	90	36.1581920903955	36.241610738255	20	0.666734160110354	2	3	6	NaN	1	5	0.07020130164029	0	1	NaN	233	4	44	1	120	220	320	NaN	520	0.285315927816555	2	0	NaN	1734849.3574856	NaN	1734850.3409905	1734850.85755007
41	19	1	0	90	36.1581920903955	36.241610738255	7	0.233356956038624	2	3	6	NaN	1	4	0.07020130164029	0	1	NaN	234	4	45	1	120	220	320	NaN	520	0.205013875383884	1	1	NaN	1734851.9578668	NaN	1734852.9412573	1734853.45779612
41	19	1	0	90	36.1581920903955	36.241610738255	8	0.266693664044142	2	7	3	NaN	2	4	0.07020130164029	0	1	NaN	235	4	46	1	120	220	320	NaN	520	0.232134571531788	1	0	NaN	1734854.4747711	NaN	1734855.4581579	1734855.97471263
41	19	1	0	90	36.1581920903955	36.241610738255	14	0.466713912077248	2	5	4	NaN	1	3	0.07020130164029	0	1	NaN	236	4	47	1	120	220	320	NaN	520	0.27360852365382	1	1	NaN	1734857.0249125	NaN	1734858.0084108	1734858.52498478
41	19	1	0	90	36.1581920903955	36.241610738255	18	0.600060744099319	2	3	4	NaN	1	4	0.07020130164029	0	1	NaN	237	4	48	1	120	220	320	NaN	520	2.48222527536564	2	0	NaN	1734859.8085975	NaN	1734860.7920241	1734861.30856802
41	19	1	0	90	36.1581920903955	36.241610738255	0	0	1	5	5	NaN	1	5	0.07020130164029	0	1	NaN	238	4	49	1	110	210	310	NaN	510	0.0104088755324483	1	1	NaN	1734864.6091146	NaN	1734865.5925144	1734866.10903982
41	19	1	0	90	36.1581920903955	36.241610738255	24	0.800080992132425	2	10	5	NaN	2	4	0.07020130164029	0	1	NaN	239	4	50	1	120	220	320	NaN	520	0.0103983278386295	1	0	NaN	1734866.9258129	NaN	1734867.9093866	1734868.42594527
41	19	1	0	90	36.1581920903955	36.241610738255	17	0.566724036093801	2	10	3	NaN	2	4	0.07020130164029	0	1	NaN	240	4	51	1	120	220	320	NaN	520	1.28020752780139	2	1	NaN	1734869.2428506	NaN	1734870.2262889	1734870.74284037
41	19	1	0	90	36.1581920903955	36.241610738255	24	0.800080992132425	2	4	3	NaN	1	3	0.07020130164029	0	1	NaN	241	4	52	1	120	220	320	NaN	520	0.727857675636187	1	1	NaN	1734872.8432456	NaN	1734873.8266239	1734874.34319122
41	19	1	0	90	36.1581920903955	36.241610738255	17	0.566724036093801	2	1	6	NaN	1	4	0.07020130164029	0	1	NaN	242	4	53	1	120	220	320	NaN	520	0.940422175452113	2	0	NaN	1734876.1102023	NaN	1734877.0936312	1734877.61017822
41	19	1	0	90	36.1581920903955	36.241610738255	21	0.700070868115872	2	3	2	NaN	1	3	0.07020130164029	0	1	NaN	243	4	54	1	120	220	320	NaN	520	0.425702975597233	1	1	NaN	1734879.3770602	NaN	1734880.3605132	1734880.87716322
41	19	1	0	90	36.1581920903955	36.241610738255	10	0.333367080055177	2	8	2	NaN	2	5	0.07020130164029	0	1	NaN	244	4	55	1	120	220	320	NaN	520	0.332135223550722	2	1	NaN	1734882.1108244	NaN	1734883.0942158	1734883.61075768
41	19	1	0	90	36.1581920903955	36.241610738255	17	0.566724036093801	2	2	6	NaN	1	5	0.07020130164029	0	1	NaN	245	4	56	1	120	220	320	NaN	520	0.274007327621803	1	1	NaN	1734884.7611903	NaN	1734885.7444777	1734886.26103207
41	19	1	0	90	36.1581920903955	36.241610738255	16	0.533387328088283	2	3	2	NaN	1	3	0.07020130164029	0	1	NaN	246	4	57	1	120	220	320	NaN	520	0.010419275611639	1	1	NaN	1734887.3446527	NaN	1734888.3280664	1734888.84461232
41	19	1	0	90	36.1581920903955	36.241610738255	22	0.73340757612139	2	6	1	NaN	1	4	0.07020130164029	0	1	NaN	247	4	58	1	120	220	320	NaN	520	0.364596275379881	1	1	NaN	1734889.6782104	NaN	1734890.6616195	1734891.17816692
41	19	1	0	90	36.1581920903955	36.241610738255	15	0.500050620082766	2	7	5	NaN	2	3	0.07020130164029	0	1	NaN	248	4	59	1	120	220	320	NaN	520	0.01027264399454	2	1	NaN	1734892.3618083	NaN	1734893.3452201	1734893.86177466
41	19	1	0	90	36.1581920903955	36.241610738255	17	0.566724036093801	2	9	4	NaN	2	5	0.07020130164029	0	1	NaN	249	4	60	1	120	220	320	NaN	520	0.259175927843899	1	0	NaN	1734894.6953863	NaN	1734895.6787748	1734896.19535117
41	19	1	0	90	36.1581920903955	36.241610738255	18	0.600060744099319	2	5	1	NaN	1	3	0.07020130164029	0	1	NaN	250	4	61	1	120	220	320	NaN	520	0.420784075511619	2	0	NaN	1734897.2623067	NaN	1734898.2456965	1734898.76225342
41	19	1	0	90	36.1581920903955	36.241610738255	12	0.400040496066213	2	11	1	NaN	2	4	0.07020130164029	0	1	NaN	251	4	62	1	120	220	320	NaN	520	0.271164731821045	2	1	NaN	1734899.9959996	NaN	1734900.9793058	1734901.49586047
41	19	1	0	90	36.1581920903955	36.241610738255	21	0.700070868115872	2	10	5	NaN	2	3	0.07020130164029	0	1	NaN	252	4	63	1	120	220	320	NaN	520	0.999180575599894	1	0	NaN	1734902.5794918	NaN	1734903.5629491	1734904.07944382
41	19	1	0	90	36.1581920903955	36.241610738255	14	0.466713912077248	2	9	6	NaN	2	3	0.07020130164029	0	1	NaN	253	5	1	1	120	220	320	NaN	520	0.310985035961494	2	1	NaN	1734913.5638813	NaN	1734914.5473056	1734915.06385026
41	19	1	0	90	36.1581920903955	36.241610738255	10	0.333367080055177	2	12	4	NaN	2	3	0.07020130164029	0	1	NaN	254	5	2	1	120	220	320	NaN	520	0.462314427830279	1	0	NaN	1734916.1807167	NaN	1734917.1642219	1734917.68077927
41	19	1	0	90	36.1581920903955	36.241610738255	20	0.666734160110354	2	11	6	NaN	2	4	0.07020130164029	0	1	NaN	255	5	3	1	120	220	320	NaN	520	0.590406675590202	2	1	NaN	1734918.9644278	NaN	1734919.9478443	1734920.46438682
41	19	1	0	90	36.1581920903955	36.241610738255	13	0.43337720407173	2	7	1	NaN	2	5	0.07020130164029	0	1	NaN	256	5	4	1	120	220	320	NaN	520	0.274693595943972	1	0	NaN	1734922.848275	NaN	1734923.8315409	1734924.3481114
41	19	1	0	90	36.1581920903955	36.241610738255	0	0	1	10	3	NaN	2	4	0.07020130164029	0	1	NaN	257	5	5	1	110	210	310	NaN	510	0.387328892014921	2	1	NaN	1734925.431709	NaN	1734926.4151192	1734926.93169711
41	19	1	0	90	36.1581920903955	36.241610738255	19	0.633397452104837	2	3	1	NaN	1	5	0.07020130164029	0	1	NaN	258	5	6	1	120	220	320	NaN	520	0.971748987911269	2	0	NaN	1734928.215317	NaN	1734929.1987351	1734929.71529841
41	19	1	0	90	36.1581920903955	36.241610738255	12	0.400040496066213	2	8	4	NaN	2	3	0.07020130164029	0	1	NaN	259	5	7	1	120	220	320	NaN	520	0.0104256235063076	2	1	NaN	1734931.4988629	NaN	1734932.4824729	1734932.99895218
41	19	1	0	90	36.1581920903955	36.241610738255	16	0.533387328088283	2	2	3	NaN	1	5	0.07020130164029	0	1	NaN	260	5	8	1	120	220	320	NaN	520	0.282267927657813	1	1	NaN	1734933.8325634	NaN	1734934.8159441	1734935.33251827
41	19	1	0	90	36.1581920903955	36.241610738255	23	0.766744284126908	2	1	5	NaN	1	4	0.07020130164029	0	1	NaN	261	5	9	1	120	220	320	NaN	520	0.394623075611889	1	1	NaN	1734936.4161507	NaN	1734937.3995294	1734937.91610082
41	19	1	0	90	36.1581920903955	36.241610738255	11	0.366703788060695	2	8	5	NaN	2	5	0.07020130164029	0	1	NaN	262	5	10	1	120	220	320	NaN	520	0.798713587922975	2	1	NaN	1734939.1164087	NaN	1734940.0998017	1734940.61636111
41	19	1	0	90	36.1581920903955	36.241610738255	6	0.200020248033106	2	2	5	NaN	1	3	0.07020130164029	0	1	NaN	263	5	11	1	120	220	320	NaN	520	0.0104130755644292	1	1	NaN	1734942.2334002	NaN	1734943.2168607	1734943.73333612
41	19	1	0	90	36.1581920903955	36.241610738255	19	0.633397452104837	2	9	1	NaN	2	4	0.07020130164029	0	1	NaN	264	5	12	1	120	220	320	NaN	520	0.436583075439557	2	1	NaN	1734944.5502717	NaN	1734945.5336739	1734946.05023432
41	19	1	0	90	36.1581920903955	36.241610738255	22	0.73340757612139	2	7	2	NaN	2	4	0.07020130164029	0	1	NaN	265	5	13	1	120	220	320	NaN	520	0.363056275527924	1	0	NaN	1734947.3838597	NaN	1734948.3673105	1734948.88384362
41	19	1	0	90	36.1581920903955	36.241610738255	21	0.700070868115872	2	2	5	NaN	1	4	0.07020130164029	0	1	NaN	266	5	14	1	120	220	320	NaN	520	0.255680944072083	1	1	NaN	1734950.0674973	NaN	1734951.0508946	1734951.56744636
41	19	1	0	90	36.1581920903955	36.241610738255	20	0.666734160110354	2	6	1	NaN	1	5	0.07020130164029	0	1	NaN	267	5	15	1	120	220	320	NaN	520	0.344582575606182	1	1	NaN	1734952.6344217	NaN	1734953.6178095	1734954.13434942
41	19	1	0	90	36.1581920903955	36.241610738255	18	0.600060744099319	2	9	5	NaN	2	5	0.07020130164029	0	1	NaN	268	5	16	1	120	220	320	NaN	520	0.01039182767272	1	0	NaN	1734955.3012131	NaN	1734956.2847526	1734956.80128787
41	19	1	0	90	36.1581920903955	36.241610738255	16	0.533387328088283	2	8	6	NaN	2	5	0.07020130164029	0	1	NaN	269	5	17	1	120	220	320	NaN	520	0.0647143756505102	2	1	NaN	1734957.6181023	NaN	1734958.6016339	1734959.11817722
41	19	1	0	90	36.1581920903955	36.241610738255	9	0.300030372049659	2	3	2	NaN	1	3	0.07020130164029	0	1	NaN	270	5	18	1	120	220	320	NaN	520	0.360991475638002	1	1	NaN	1734960.0018778	NaN	1734960.985202	1734961.50174352
41	19	1	0	90	36.1581920903955	36.241610738255	11	0.366703788060695	2	9	6	NaN	2	4	0.07020130164029	0	1	NaN	271	5	19	1	120	220	320	NaN	520	0.0104243755340576	2	1	NaN	1734962.7854162	NaN	1734963.7688023	1734964.28535762
41	19	1	0	90	36.1581920903955	36.241610738255	21	0.700070868115872	2	6	6	NaN	1	4	0.07020130164029	0	1	NaN	272	5	20	1	120	220	320	NaN	520	0.0104133754502982	1	1	NaN	1734965.1189881	NaN	1734966.1023639	1734966.61891662
41	19	1	0	90	36.1581920903955	36.241610738255	8	0.266693664044142	2	5	3	NaN	1	5	0.07020130164029	0	1	NaN	273	5	21	1	120	220	320	NaN	520	0.34240687568672	2	0	NaN	1734967.452519	NaN	1734968.4359338	1734968.95247302
41	19	1	0	90	36.1581920903955	36.241610738255	7	0.233356956038624	2	8	6	NaN	2	5	0.07020130164029	0	1	NaN	274	5	22	1	120	220	320	NaN	520	0.0104079756420106	2	1	NaN	1734970.1027943	NaN	1734971.0861819	1734971.60274152
41	19	1	0	90	36.1581920903955	36.241610738255	25	0.833417700137943	2	6	2	NaN	1	4	0.07020130164029	0	1	NaN	275	5	23	1	120	220	320	NaN	520	0.238894475391135	1	1	NaN	1734972.4363436	NaN	1734973.4197605	1734973.93630112
41	19	1	0	90	36.1581920903955	36.241610738255	24	0.800080992132425	2	12	4	NaN	2	5	0.07020130164029	0	1	NaN	276	5	24	1	120	220	320	NaN	520	0.329245975706726	2	1	NaN	1734975.7699814	NaN	1734976.7534	1734977.26996062
41	19	1	0	90	36.1581920903955	36.241610738255	22	0.73340757612139	2	4	5	NaN	1	4	0.07020130164029	0	1	NaN	277	5	25	1	120	220	320	NaN	520	0.0104087756481022	2	0	NaN	1734978.4202771	NaN	1734979.4036808	1734979.92022282
41	19	1	0	90	36.1581920903955	36.241610738255	23	0.766744284126908	2	3	6	NaN	1	3	0.07020130164029	0	1	NaN	278	5	26	1	120	220	320	NaN	520	0.0104073756374419	1	1	NaN	1734980.737176	NaN	1734981.720676	1734982.23711112
41	19	1	0	90	36.1581920903955	36.241610738255	16	0.533387328088283	2	11	1	NaN	2	3	0.07020130164029	0	1	NaN	279	5	27	1	120	220	320	NaN	520	0.34046247554943	2	1	NaN	1734983.0706023	NaN	1734984.0541351	1734984.57068202
41	19	1	0	90	36.1581920903955	36.241610738255	13	0.43337720407173	2	10	2	NaN	2	5	0.07020130164029	0	1	NaN	280	5	28	1	120	220	320	NaN	520	0.666265127714723	2	1	NaN	1734985.7209223	NaN	1734986.7043822	1734987.22094167
41	19	1	0	90	36.1581920903955	36.241610738255	21	0.700070868115872	2	3	2	NaN	1	4	0.07020130164029	0	1	NaN	281	5	29	1	120	220	320	NaN	520	0.298642975511029	1	1	NaN	1734988.7044934	NaN	1734989.6880188	1734990.20456722
41	19	1	0	90	36.1581920903955	36.241610738255	12	0.400040496066213	2	5	5	NaN	1	5	0.07020130164029	0	1	NaN	282	5	30	1	120	220	320	NaN	520	0.29770612786524	1	1	NaN	1734991.3214184	NaN	1734992.3049331	1734992.82148887
41	19	1	0	90	36.1581920903955	36.241610738255	12	0.400040496066213	2	1	4	NaN	1	5	0.07020130164029	0	1	NaN	283	5	31	1	120	220	320	NaN	520	0.0104515755083412	1	1	NaN	1734993.93849	NaN	1734994.9218644	1734995.43840552
41	19	1	0	90	36.1581920903955	36.241610738255	14	0.466713912077248	2	9	2	NaN	2	5	0.07020130164029	0	1	NaN	284	5	32	1	120	220	320	NaN	520	0.363109923666343	1	0	NaN	1734996.2719177	NaN	1734997.255455	1734997.77197898
41	19	1	0	90	36.1581920903955	36.241610738255	10	0.333367080055177	2	4	1	NaN	1	5	0.07020130164029	0	1	NaN	285	5	33	1	120	220	320	NaN	520	0.263377283699811	1	1	NaN	1734998.9554791	NaN	1734999.9390311	1735000.45557252
41	19	1	0	90	36.1581920903955	36.241610738255	14	0.466713912077248	2	3	3	NaN	1	4	0.07020130164029	0	1	NaN	286	5	34	1	120	220	320	NaN	520	0.297997327754274	1	1	NaN	1735001.6892055	NaN	1735002.6726185	1735003.18917817
41	19	1	0	90	36.1581920903955	36.241610738255	25	0.833417700137943	2	1	5	NaN	1	5	0.07020130164029	0	1	NaN	287	5	35	1	120	220	320	NaN	520	1.26473877555691	1	1	NaN	1735004.3061568	NaN	1735005.2895738	1735005.80610052
41	19	1	0	90	36.1581920903955	36.241610738255	15	0.500050620082766	2	3	1	NaN	1	5	0.07020130164029	0	1	NaN	288	5	36	1	120	220	320	NaN	520	0.0104154755827039	2	0	NaN	1735007.8897027	NaN	1735008.8732282	1735009.38977852
41	19	1	0	90	36.1581920903955	36.241610738255	20	0.666734160110354	2	10	2	NaN	2	5	0.07020130164029	0	1	NaN	289	5	37	1	120	220	320	NaN	520	0.443487875396386	2	1	NaN	1735010.2234071	NaN	1735011.2068043	1735011.72334482
41	19	1	0	90	36.1581920903955	36.241610738255	18	0.600060744099319	2	7	4	NaN	2	4	0.07020130164029	0	1	NaN	290	5	38	1	120	220	320	NaN	520	0.0102874441072345	1	0	NaN	1735012.9736623	NaN	1735013.9570524	1735014.47361506
41	19	1	0	90	36.1581920903955	36.241610738255	7	0.233356956038624	2	1	4	NaN	1	4	0.07020130164029	0	1	NaN	291	5	39	1	120	220	320	NaN	520	0.207722675753757	1	1	NaN	1735015.3071975	NaN	1735016.2906567	1735016.80718212
41	19	1	0	90	36.1581920903955	36.241610738255	16	0.533387328088283	2	9	3	NaN	2	4	0.07020130164029	0	1	NaN	292	5	40	1	120	220	320	NaN	520	0.418625027639791	1	0	NaN	1735017.8241604	NaN	1735018.807531	1735019.32409577
41	19	1	0	90	36.1581920903955	36.241610738255	7	0.233356956038624	2	8	6	NaN	2	3	0.07020130164029	0	1	NaN	293	5	41	1	120	220	320	NaN	520	0.0104040754958987	2	1	NaN	1735020.5577314	NaN	1735021.5411428	1735022.05769572
41	19	1	0	90	36.1581920903955	36.241610738255	6	0.200020248033106	2	11	5	NaN	2	5	0.07020130164029	0	1	NaN	294	5	42	1	120	220	320	NaN	520	0.519719235831872	1	0	NaN	1735022.891318	NaN	1735023.874708	1735024.39125966
41	19	1	0	90	36.1581920903955	36.241610738255	21	0.700070868115872	2	8	5	NaN	2	3	0.07020130164029	0	1	NaN	295	5	43	1	120	220	320	NaN	520	0.350096775684506	2	1	NaN	1735025.7247957	NaN	1735026.7083496	1735027.22486852
41	19	1	0	90	36.1581920903955	36.241610738255	10	0.333367080055177	2	1	4	NaN	1	5	0.07020130164029	0	1	NaN	296	5	44	1	120	220	320	NaN	520	0.195035827811807	1	1	NaN	1735028.3918785	NaN	1735029.3752731	1735029.89179707
41	19	1	0	90	36.1581920903955	36.241610738255	9	0.300030372049659	2	1	4	NaN	1	3	0.07020130164029	0	1	NaN	297	5	45	1	120	220	320	NaN	520	0.0104721714742482	1	1	NaN	1735030.8919664	NaN	1735031.8754894	1735032.39205593
41	19	1	0	90	36.1581920903955	36.241610738255	17	0.566724036093801	2	4	3	NaN	1	4	0.07020130164029	0	1	NaN	298	5	46	1	120	220	320	NaN	520	0.0104093756526709	1	1	NaN	1735033.2256521	NaN	1735034.2090574	1735034.72560912
41	19	1	0	90	36.1581920903955	36.241610738255	13	0.43337720407173	2	10	6	NaN	2	4	0.07020130164029	0	1	NaN	299	5	47	1	120	220	320	NaN	520	0.0104069756343961	1	0	NaN	1735035.5591458	NaN	1735036.542626	1735037.05916682
41	19	1	0	90	36.1581920903955	36.241610738255	17	0.566724036093801	2	11	5	NaN	2	4	0.07020130164029	0	1	NaN	300	5	48	1	120	220	320	NaN	520	0.0104143756907433	2	1	NaN	1735037.8927888	NaN	1735038.8762219	1735039.39272582
41	19	1	0	90	36.1581920903955	36.241610738255	7	0.233356956038624	2	9	2	NaN	2	3	0.07020130164029	0	1	NaN	301	5	49	1	120	220	320	NaN	520	0.240869675530121	2	1	NaN	1735040.2263573	NaN	1735041.2097669	1735041.72628472
41	19	1	0	90	36.1581920903955	36.241610738255	8	0.266693664044142	2	9	4	NaN	2	4	0.07020130164029	0	1	NaN	302	5	50	1	120	220	320	NaN	520	0.0103879317175597	1	0	NaN	1735042.776601	NaN	1735043.7599844	1735044.27654867
41	19	1	0	90	36.1581920903955	36.241610738255	22	0.73340757612139	2	12	4	NaN	2	4	0.07020130164029	0	1	NaN	303	5	51	1	120	220	320	NaN	520	0.512862623436376	2	1	NaN	1735045.410205	NaN	1735046.3935939	1735046.91012918
41	19	1	0	90	36.1581920903955	36.241610738255	8	0.266693664044142	2	2	3	NaN	1	4	0.07020130164029	0	1	NaN	304	5	52	1	120	220	320	NaN	520	0.111338327638805	2	0	NaN	1735048.2437989	NaN	1735049.2271912	1735049.74375087
41	19	1	0	90	36.1581920903955	36.241610738255	12	0.400040496066213	2	12	5	NaN	2	3	0.07020130164029	0	1	NaN	305	5	53	1	120	220	320	NaN	520	0.261428975500166	2	1	NaN	1735050.6774397	NaN	1735051.6606597	1735052.17731092
41	19	1	0	90	36.1581920903955	36.241610738255	24	0.800080992132425	2	6	3	NaN	1	5	0.07020130164029	0	1	NaN	306	5	54	1	120	220	320	NaN	520	0.782059527700767	1	1	NaN	1735053.2609588	NaN	1735054.2443495	1735054.76090727
41	19	1	0	90	36.1581920903955	36.241610738255	8	0.266693664044142	2	4	3	NaN	1	5	0.07020130164029	0	1	NaN	307	5	55	1	120	220	320	NaN	520	0.27409522770904	1	1	NaN	1735056.3612279	NaN	1735057.3446549	1735057.86120557
41	19	1	0	90	36.1581920903955	36.241610738255	0	0	1	8	1	NaN	2	5	0.07020130164029	0	1	NaN	308	5	56	1	110	210	310	NaN	510	0.409567475551739	2	1	NaN	1735058.9615036	NaN	1735059.944903	1735060.46146772
41	19	1	0	90	36.1581920903955	36.241610738255	18	0.600060744099319	2	6	6	NaN	1	5	0.07020130164029	0	1	NaN	309	5	57	1	120	220	320	NaN	520	0.340885675512254	2	0	NaN	1735061.6784283	NaN	1735062.6618402	1735063.17839462
41	19	1	0	90	36.1581920903955	36.241610738255	9	0.300030372049659	2	8	6	NaN	2	4	0.07020130164029	0	1	NaN	310	5	58	1	120	220	320	NaN	520	1.01800537551753	2	1	NaN	1735064.3452565	NaN	1735065.3287829	1735065.84533072
41	19	1	0	90	36.1581920903955	36.241610738255	18	0.600060744099319	2	10	6	NaN	2	3	0.07020130164029	0	1	NaN	311	5	59	1	120	220	320	NaN	520	0.180016127647832	2	1	NaN	1735067.6789126	NaN	1735068.6624443	1735069.17899127
41	19	1	0	90	36.1581920903955	36.241610738255	14	0.466713912077248	2	10	6	NaN	2	5	0.07020130164029	0	1	NaN	312	5	60	1	120	220	320	NaN	520	0.0103757795877755	1	0	NaN	1735070.1792885	NaN	1735071.1626854	1735071.67924752
41	19	1	0	90	36.1581920903955	36.241610738255	7	0.233356956038624	2	7	2	NaN	2	3	0.07020130164029	0	1	NaN	313	5	61	1	120	220	320	NaN	520	0.211183127714321	2	1	NaN	1735072.4961976	NaN	1735073.4796127	1735073.99613497
41	19	1	0	90	36.1581920903955	36.241610738255	16	0.533387328088283	2	7	3	NaN	2	3	0.07020130164029	0	1	NaN	314	5	62	1	120	220	320	NaN	520	0.308961775386706	2	1	NaN	1735075.0297551	NaN	1735076.0131592	1735076.52970322
41	19	1	0	90	36.1581920903955	36.241610738255	11	0.366703788060695	2	6	3	NaN	1	5	0.07020130164029	0	1	NaN	315	5	63	1	120	220	320	NaN	520	0.211822423618287	1	1	NaN	1735077.6633619	NaN	1735078.646748	1735079.16330218
41	19	1	0	90	36.1581920903955	36.241610738255	23	0.766744284126908	2	2	3	NaN	1	4	0.07020130164029	0	1	NaN	316	6	1	1	120	220	320	NaN	520	1.18010537559167	1	1	NaN	1735085.8306897	NaN	1735086.8142229	1735087.33077662
41	19	1	0	90	36.1581920903955	36.241610738255	19	0.633397452104837	2	5	3	NaN	1	4	0.07020130164029	0	1	NaN	317	6	2	1	120	220	320	NaN	520	0.0104189754929394	2	0	NaN	1735089.3311882	NaN	1735090.3145632	1735090.83111492
41	19	1	0	90	36.1581920903955	36.241610738255	20	0.666734160110354	2	5	1	NaN	1	5	0.07020130164029	0	1	NaN	318	6	3	1	120	220	320	NaN	520	0.010392127558589	1	1	NaN	1735091.6647211	NaN	1735092.6481618	1735093.16468347
41	19	1	0	90	36.1581920903955	36.241610738255	18	0.600060744099319	2	6	4	NaN	1	4	0.07020130164029	0	1	NaN	319	6	4	1	120	220	320	NaN	520	0.0104243755340576	1	1	NaN	1735093.9816371	NaN	1735094.9650177	1735095.48157442
41	19	1	0	90	36.1581920903955	36.241610738255	23	0.766744284126908	2	10	4	NaN	2	3	0.07020130164029	0	1	NaN	320	6	5	1	120	220	320	NaN	520	0.0104266235139221	2	1	NaN	1735096.3484987	NaN	1735097.331927	1735097.84847148
41	19	1	0	90	36.1581920903955	36.241610738255	20	0.666734160110354	2	3	3	NaN	1	4	0.07020130164029	0	1	NaN	321	6	6	1	120	220	320	NaN	520	0.232871423708275	1	1	NaN	1735098.6820874	NaN	1735099.6654816	1735100.18202998
41	19	1	0	90	36.1581920903955	36.241610738255	15	0.500050620082766	2	5	4	NaN	1	3	0.07020130164029	0	1	NaN	322	6	7	1	120	220	320	NaN	520	0.202813219511881	2	0	NaN	1735101.23234	NaN	1735102.2156343	1735102.73227338
41	19	1	0	90	36.1581920903955	36.241610738255	24	0.800080992132425	2	3	1	NaN	1	3	0.07020130164029	0	1	NaN	323	6	8	1	120	220	320	NaN	520	0.414274275535718	1	1	NaN	1735103.749227	NaN	1735104.7326285	1735105.24919622
41	19	1	0	90	36.1581920903955	36.241610738255	25	0.833417700137943	2	1	6	NaN	1	5	0.07020130164029	0	1	NaN	324	6	9	1	120	220	320	NaN	520	0.97340077557601	1	1	NaN	1735107.7496108	NaN	1735108.7330424	1735109.24958902
41	19	1	0	90	36.1581920903955	36.241610738255	23	0.766744284126908	2	1	3	NaN	1	4	0.07020130164029	0	1	NaN	325	6	10	1	120	220	320	NaN	520	0.425819823518395	2	0	NaN	1735111.0332348	NaN	1735112.0166845	1735112.53323768
41	19	1	0	90	36.1581920903955	36.241610738255	8	0.266693664044142	2	3	3	NaN	1	4	0.07020130164029	0	1	NaN	326	6	11	1	120	220	320	NaN	520	0.0102835916914046	1	1	NaN	1735114.3169696	NaN	1735115.3003514	1735115.81691281
41	19	1	0	90	36.1581920903955	36.241610738255	21	0.700070868115872	2	11	4	NaN	2	4	0.07020130164029	0	1	NaN	327	6	12	1	120	220	320	NaN	520	0.601190927671269	2	1	NaN	1735116.6338683	NaN	1735117.6172353	1735118.13381777
41	19	1	0	90	36.1581920903955	36.241610738255	10	0.333367080055177	2	6	4	NaN	1	4	0.07020130164029	0	1	NaN	328	6	13	1	120	220	320	NaN	520	0.0105205236468464	1	1	NaN	1735119.5507017	NaN	1735120.5341998	1735121.05076668
41	19	1	0	90	36.1581920903955	36.241610738255	16	0.533387328088283	2	12	6	NaN	2	5	0.07020130164029	0	1	NaN	329	6	14	1	120	220	320	NaN	520	0.286838375497609	2	1	NaN	1735121.8843777	NaN	1735122.8677556	1735123.38431412
41	19	1	0	90	36.1581920903955	36.241610738255	23	0.766744284126908	2	12	1	NaN	2	5	0.07020130164029	0	1	NaN	330	6	15	1	120	220	320	NaN	520	0.366816644091159	1	0	NaN	1735124.4846048	NaN	1735125.4680231	1735125.98456426
41	19	1	0	90	36.1581920903955	36.241610738255	14	0.466713912077248	2	8	4	NaN	2	3	0.07020130164029	0	1	NaN	331	6	16	1	120	220	320	NaN	520	0.0103968277107924	1	0	NaN	1735127.1682119	NaN	1735128.1516233	1735128.66816417
41	19	1	0	90	36.1581920903955	36.241610738255	23	0.766744284126908	2	7	4	NaN	2	4	0.07020130164029	0	1	NaN	332	6	17	1	120	220	320	NaN	520	0.0104097756557167	2	1	NaN	1735129.5017768	NaN	1735130.4851127	1735131.00171892
41	19	1	0	90	36.1581920903955	36.241610738255	15	0.500050620082766	2	5	4	NaN	1	3	0.07020130164029	0	1	NaN	333	6	18	1	120	220	320	NaN	520	0.216722144046798	2	0	NaN	1735131.8185472	NaN	1735132.8021369	1735133.31862356
41	19	1	0	90	36.1581920903955	36.241610738255	21	0.700070868115872	2	9	5	NaN	2	4	0.07020130164029	0	1	NaN	334	6	19	1	120	220	320	NaN	520	0.0104200756177306	1	0	NaN	1735134.3522617	NaN	1735135.3356712	1735135.85220302
41	19	1	0	90	36.1581920903955	36.241610738255	23	0.766744284126908	2	6	4	NaN	1	3	0.07020130164029	0	1	NaN	335	6	20	1	120	220	320	NaN	520	0.0104508756194264	1	1	NaN	1735136.6858298	NaN	1735137.6692074	1735138.18576362
41	19	1	0	90	36.1581920903955	36.241610738255	6	0.200020248033106	2	6	6	NaN	1	4	0.07020130164029	0	1	NaN	336	6	21	1	120	220	320	NaN	520	0.010430323658511	1	1	NaN	1735139.0025776	NaN	1735139.986111	1735140.50265098
41	19	1	0	90	36.1581920903955	36.241610738255	19	0.633397452104837	2	11	5	NaN	2	3	0.07020130164029	0	1	NaN	337	6	22	1	120	220	320	NaN	520	0.0104093754198402	1	0	NaN	1735141.3361443	NaN	1735142.3197202	1735142.83622092
41	19	1	0	90	36.1581920903955	36.241610738255	10	0.333367080055177	2	5	1	NaN	1	5	0.07020130164029	0	1	NaN	338	6	23	1	120	220	320	NaN	520	0.0104080755263567	2	0	NaN	1735143.6531735	NaN	1735144.6365683	1735145.15312172
41	19	1	0	90	36.1581920903955	36.241610738255	15	0.500050620082766	2	4	1	NaN	1	5	0.07020130164029	0	1	NaN	339	6	24	1	120	220	320	NaN	520	0.0102711438667029	2	0	NaN	1735145.9867469	NaN	1735146.9701339	1735147.48668176
41	19	1	0	90	36.1581920903955	36.241610738255	10	0.333367080055177	2	4	4	NaN	1	5	0.07020130164029	0	1	NaN	340	6	25	1	120	220	320	NaN	520	0.0104042754974216	1	1	NaN	1735148.3203005	NaN	1735149.303688	1735149.82023662
41	19	1	0	90	36.1581920903955	36.241610738255	18	0.600060744099319	2	11	2	NaN	2	5	0.07020130164029	0	1	NaN	341	6	26	1	120	220	320	NaN	520	0.0103973275981843	2	1	NaN	1735150.6372424	NaN	1735151.6205811	1735152.13712867
41	19	1	0	90	36.1581920903955	36.241610738255	24	0.800080992132425	2	7	5	NaN	2	3	0.07020130164029	0	1	NaN	342	6	27	1	120	220	320	NaN	520	0.0104078755248338	2	1	NaN	1735152.9707492	NaN	1735153.9541512	1735154.47070362
41	19	1	0	90	36.1581920903955	36.241610738255	15	0.500050620082766	2	10	4	NaN	2	3	0.07020130164029	0	1	NaN	343	6	28	1	120	220	320	NaN	520	0.0104091754183173	2	1	NaN	1735155.3043346	NaN	1735156.2876996	1735156.80426232
41	19	1	0	90	36.1581920903955	36.241610738255	22	0.73340757612139	2	5	6	NaN	1	5	0.07020130164029	0	1	NaN	344	6	29	1	120	220	320	NaN	520	0.0103917275555432	1	1	NaN	1735157.6213048	NaN	1735158.6046144	1735159.12115997
41	19	1	0	90	36.1581920903955	36.241610738255	13	0.43337720407173	2	4	6	NaN	1	5	0.07020130164029	0	1	NaN	345	6	30	1	120	220	320	NaN	520	0.0102840918116271	1	1	NaN	1735159.9547801	NaN	1735160.9381534	1735161.45472541
41	19	1	0	90	36.1581920903955	36.241610738255	20	0.666734160110354	2	5	2	NaN	1	3	0.07020130164029	0	1	NaN	346	6	31	1	120	220	320	NaN	520	0.0104233238380402	1	1	NaN	1735162.2716714	NaN	1735163.2549712	1735163.77160168
41	19	1	0	90	36.1581920903955	36.241610738255	22	0.73340757612139	2	5	5	NaN	1	3	0.07020130164029	0	1	NaN	347	6	32	1	120	220	320	NaN	520	0.0102920918725431	1	1	NaN	1735164.5885537	NaN	1735165.5719399	1735166.08851161
41	19	1	0	90	36.1581920903955	36.241610738255	19	0.633397452104837	2	12	3	NaN	2	4	0.07020130164029	0	1	NaN	348	6	33	1	120	220	320	NaN	520	0.0104066757485271	2	1	NaN	1735166.9221242	NaN	1735167.9055183	1735168.42207202
41	19	1	0	90	36.1581920903955	36.241610738255	15	0.500050620082766	2	4	5	NaN	1	5	0.07020130164029	0	1	NaN	349	6	34	1	120	220	320	NaN	520	0.0104103756602854	1	1	NaN	1735169.2390285	NaN	1735170.2224042	1735170.73896392
41	19	1	0	90	36.1581920903955	36.241610738255	7	0.233356956038624	2	6	1	NaN	1	4	0.07020130164029	0	1	NaN	350	6	35	1	120	220	320	NaN	520	0.0385193999391049	1	1	NaN	1735171.5724516	NaN	1735172.5559816	1735173.0725402
41	19	1	0	90	36.1581920903955	36.241610738255	15	0.500050620082766	2	12	1	NaN	2	5	0.07020130164029	0	1	NaN	351	6	36	1	120	220	320	NaN	520	0.0104072755202651	2	1	NaN	1735173.9228152	NaN	1735174.9062277	1735175.42275342
41	19	1	0	90	36.1581920903955	36.241610738255	25	0.833417700137943	2	12	6	NaN	2	4	0.07020130164029	0	1	NaN	352	6	37	1	120	220	320	NaN	520	0.290700575569645	2	1	NaN	1735176.256373	NaN	1735177.2397923	1735177.75631582
41	19	1	0	90	36.1581920903955	36.241610738255	9	0.300030372049659	2	4	1	NaN	1	5	0.07020130164029	0	1	NaN	353	6	38	1	120	220	320	NaN	520	0.0103973275981843	1	1	NaN	1735178.8732916	NaN	1735179.8566836	1735180.37324227
41	19	1	0	90	36.1581920903955	36.241610738255	11	0.366703788060695	2	7	6	NaN	2	4	0.07020130164029	0	1	NaN	354	6	39	1	120	220	320	NaN	520	0.0104362235870212	2	1	NaN	1735181.1900625	NaN	1735182.1735951	1735182.69012708
41	19	1	0	90	36.1581920903955	36.241610738255	16	0.533387328088283	2	4	1	NaN	1	5	0.07020130164029	0	1	NaN	355	6	40	1	120	220	320	NaN	520	0.0104048755019903	1	1	NaN	1735183.5236191	NaN	1735184.5071382	1735185.02369322
41	19	1	0	90	36.1581920903955	36.241610738255	0	0	1	8	2	NaN	2	3	0.07020130164029	0	1	NaN	356	6	41	1	110	210	310	NaN	510	0.0104155235458165	2	1	NaN	1735185.8573178	NaN	1735186.8407084	1735187.35725778
41	19	1	0	90	36.1581920903955	36.241610738255	23	0.766744284126908	2	11	2	NaN	2	3	0.07020130164029	0	1	NaN	357	6	42	1	120	220	320	NaN	520	0.204981623683125	1	0	NaN	1735188.1742198	NaN	1735189.1575948	1735189.67415388
41	19	1	0	90	36.1581920903955	36.241610738255	23	0.766744284126908	2	9	6	NaN	2	5	0.07020130164029	0	1	NaN	358	6	43	1	120	220	320	NaN	520	0.312351427739486	2	1	NaN	1735190.6910857	NaN	1735191.6745663	1735192.19106847
41	19	1	0	90	36.1581920903955	36.241610738255	16	0.533387328088283	2	8	5	NaN	2	4	0.07020130164029	0	1	NaN	359	6	44	1	120	220	320	NaN	520	0.878496875520796	2	1	NaN	1735193.3247878	NaN	1735194.308104	1735194.82466562
41	19	1	0	90	36.1581920903955	36.241610738255	23	0.766744284126908	2	6	2	NaN	1	3	0.07020130164029	0	1	NaN	360	6	45	1	120	220	320	NaN	520	0.446454623481259	1	1	NaN	1735196.5250284	NaN	1735197.5084251	1735198.02497298
41	19	1	0	90	36.1581920903955	36.241610738255	16	0.533387328088283	2	9	2	NaN	2	5	0.07020130164029	0	1	NaN	361	6	46	1	120	220	320	NaN	520	0.175592875573784	2	1	NaN	1735199.2919642	NaN	1735200.2753553	1735200.79191452
41	19	1	0	90	36.1581920903955	36.241610738255	22	0.73340757612139	2	11	1	NaN	2	5	0.07020130164029	0	1	NaN	362	6	47	1	120	220	320	NaN	520	0.540065927663818	2	1	NaN	1735201.7755278	NaN	1735202.7589401	1735203.27549487
41	19	1	0	90	36.1581920903955	36.241610738255	14	0.466713912077248	2	1	5	NaN	1	3	0.07020130164029	0	1	NaN	363	6	48	1	120	220	320	NaN	520	0.431490975432098	2	0	NaN	1735204.6758364	NaN	1735205.6592245	1735206.17577832
41	19	1	0	90	36.1581920903955	36.241610738255	13	0.43337720407173	2	6	3	NaN	1	5	0.07020130164029	0	1	NaN	364	6	49	1	120	220	320	NaN	520	0.0104026754852384	1	1	NaN	1735207.4260875	NaN	1735208.4095015	1735208.92604672
41	19	1	0	90	36.1581920903955	36.241610738255	25	0.833417700137943	2	7	6	NaN	2	3	0.07020130164029	0	1	NaN	365	6	50	1	120	220	320	NaN	520	0.260585475713015	2	1	NaN	1735209.7429866	NaN	1735210.726376	1735211.24293692
41	19	1	0	90	36.1581920903955	36.241610738255	24	0.800080992132425	2	10	5	NaN	2	4	0.07020130164029	0	1	NaN	366	6	51	1	120	220	320	NaN	520	0.148833927698433	1	0	NaN	1735212.3265824	NaN	1735213.3100171	1735213.82653157
41	19	1	0	90	36.1581920903955	36.241610738255	25	0.833417700137943	2	3	4	NaN	1	4	0.07020130164029	0	1	NaN	367	6	52	1	120	220	320	NaN	520	0.209597575711086	2	0	NaN	1735214.7933586	NaN	1735215.7768799	1735216.29343982
41	19	1	0	90	36.1581920903955	36.241610738255	0	0	1	11	2	NaN	2	4	0.07020130164029	0	1	NaN	368	6	53	1	110	210	310	NaN	510	0.756446875631809	2	1	NaN	1735217.3270062	NaN	1735218.3105186	1735218.82701982
41	19	1	0	90	36.1581920903955	36.241610738255	13	0.43337720407173	2	4	4	NaN	1	3	0.07020130164029	0	1	NaN	369	6	54	1	120	220	320	NaN	520	0.17733837547712	2	0	NaN	1735220.3940362	NaN	1735221.3774327	1735221.89398652
41	19	1	0	90	36.1581920903955	36.241610738255	14	0.466713912077248	2	12	2	NaN	2	3	0.07020130164029	0	1	NaN	370	6	55	1	120	220	320	NaN	520	1.28524222760461	2	1	NaN	1735222.8941752	NaN	1735223.8776764	1735224.39423337
41	19	1	0	90	36.1581920903955	36.241610738255	14	0.466713912077248	2	6	3	NaN	1	3	0.07020130164029	0	1	NaN	371	6	56	1	120	220	320	NaN	520	0.0103927277959883	1	1	NaN	1735226.4946567	NaN	1735227.4780223	1735227.99458977
41	19	1	0	90	36.1581920903955	36.241610738255	8	0.266693664044142	2	8	1	NaN	2	3	0.07020130164029	0	1	NaN	372	6	57	1	120	220	320	NaN	520	0.0102836440782994	2	1	NaN	1735228.8281038	NaN	1735229.811597	1735230.32814976
41	19	1	0	90	36.1581920903955	36.241610738255	12	0.400040496066213	2	6	2	NaN	1	4	0.07020130164029	0	1	NaN	373	6	58	1	120	220	320	NaN	520	0.0104247236158699	1	1	NaN	1735231.145113	NaN	1735232.1285887	1735232.64503768
41	19	1	0	90	36.1581920903955	36.241610738255	7	0.233356956038624	2	4	2	NaN	1	5	0.07020130164029	0	1	NaN	374	6	59	1	120	220	320	NaN	520	0.0103925275616348	1	1	NaN	1735233.4786571	NaN	1735234.462054	1735234.97860597
41	19	1	0	90	36.1581920903955	36.241610738255	19	0.633397452104837	2	8	1	NaN	2	4	0.07020130164029	0	1	NaN	375	6	60	1	120	220	320	NaN	520	0.0104116755537689	2	1	NaN	1735235.8123346	NaN	1735236.7956031	1735237.31216802
41	19	1	0	90	36.1581920903955	36.241610738255	7	0.233356956038624	2	12	6	NaN	2	4	0.07020130164029	0	1	NaN	376	6	61	1	120	220	320	NaN	520	0.361671427730471	2	1	NaN	1735238.1457813	NaN	1735239.12918	1735239.64573437
41	19	1	0	90	36.1581920903955	36.241610738255	24	0.800080992132425	2	2	1	NaN	1	3	0.07020130164029	0	1	NaN	377	6	62	1	120	220	320	NaN	520	0.206868391716853	1	1	NaN	1735240.8127172	NaN	1735241.7960931	1735242.31266301
41	19	1	0	90	36.1581920903955	36.241610738255	9	0.300030372049659	2	6	2	NaN	1	4	0.07020130164029	0	1	NaN	378	6	63	1	120	220	320	NaN	520	0.0104226237162948	1	1	NaN	1735243.3463403	NaN	1735244.3297185	1735244.84623198
41	19	1	0	90	36.1581920903955	36.241610738255	10	0.333367080055177	2	6	2	NaN	1	3	0.07020130164029	0	1	NaN	379	7	1	1	120	220	320	NaN	520	0.0104109754320234	1	1	NaN	1735252.5971818	NaN	1735253.5804916	1735254.09715182
41	19	1	0	90	36.1581920903955	36.241610738255	16	0.533387328088283	2	7	4	NaN	2	5	0.07020130164029	0	1	NaN	380	7	2	1	120	220	320	NaN	520	0.120631275465712	2	1	NaN	1735254.9307733	NaN	1735255.9141561	1735256.43070872
41	19	1	0	90	36.1581920903955	36.241610738255	7	0.233356956038624	2	5	1	NaN	1	4	0.07020130164029	0	1	NaN	381	7	3	1	120	220	320	NaN	520	0.35103507572785	1	1	NaN	1735257.3643325	NaN	1735258.3477395	1735258.86428282
41	19	1	0	90	36.1581920903955	36.241610738255	15	0.500050620082766	2	12	1	NaN	2	4	0.07020130164029	0	1	NaN	382	7	4	1	120	220	320	NaN	520	0.300087775569409	1	0	NaN	1735260.031269	NaN	1735261.0146632	1735261.53120432
41	19	1	0	90	36.1581920903955	36.241610738255	13	0.43337720407173	2	11	1	NaN	2	4	0.07020130164029	0	1	NaN	383	7	5	1	120	220	320	NaN	520	0.0104225757531822	2	1	NaN	1735262.6481752	NaN	1735263.6315904	1735264.14813382
41	19	1	0	90	36.1581920903955	36.241610738255	14	0.466713912077248	2	6	1	NaN	1	3	0.07020130164029	0	1	NaN	384	7	6	1	120	220	320	NaN	520	0.0103682319168001	1	1	NaN	1735264.9816297	NaN	1735265.9651416	1735266.48170147
41	19	1	0	90	36.1581920903955	36.241610738255	22	0.73340757612139	2	2	6	NaN	1	3	0.07020130164029	0	1	NaN	385	7	7	1	120	220	320	NaN	520	0.0104087754152715	2	0	NaN	1735267.5819696	NaN	1735268.5654073	1735269.08194432
41	19	1	0	90	36.1581920903955	36.241610738255	23	0.766744284126908	2	4	4	NaN	1	4	0.07020130164029	0	1	NaN	386	7	8	1	120	220	320	NaN	520	0.0103001401294023	1	1	NaN	1735269.9155961	NaN	1735270.8989616	1735271.41551876
41	19	1	0	90	36.1581920903955	36.241610738255	21	0.700070868115872	2	7	3	NaN	2	4	0.07020130164029	0	1	NaN	387	7	9	1	120	220	320	NaN	520	0.235000275773928	2	1	NaN	1735272.2324591	NaN	1735273.2158773	1735273.73240242
41	19	1	0	90	36.1581920903955	36.241610738255	6	0.200020248033106	2	7	4	NaN	2	4	0.07020130164029	0	1	NaN	388	7	10	1	120	220	320	NaN	520	0.010404875734821	2	1	NaN	1735275.6326644	NaN	1735276.6162002	1735277.13273752
41	19	1	0	90	36.1581920903955	36.241610738255	9	0.300030372049659	2	1	5	NaN	1	3	0.07020130164029	0	1	NaN	389	7	11	1	120	220	320	NaN	520	0.34196917549707	2	0	NaN	1735277.9496917	NaN	1735278.9330929	1735279.44962812
41	19	1	0	90	36.1581920903955	36.241610738255	19	0.633397452104837	2	10	4	NaN	2	5	0.07020130164029	0	1	NaN	390	7	12	1	120	220	320	NaN	520	0.0104098755400628	2	1	NaN	1735280.616636	NaN	1735281.6000172	1735282.11655792
41	19	1	0	90	36.1581920903955	36.241610738255	8	0.266693664044142	2	10	5	NaN	2	3	0.07020130164029	0	1	NaN	391	7	13	1	120	220	320	NaN	520	0.0103903796989471	1	0	NaN	1735282.9335007	NaN	1735283.916909	1735284.43345952
41	19	1	0	90	36.1581920903955	36.241610738255	0	0	1	1	3	NaN	1	5	0.07020130164029	0	1	NaN	392	7	14	1	110	210	310	NaN	510	0.0103574318345636	2	0	NaN	1735285.2670628	NaN	1735286.250464	1735286.76702307
41	19	1	0	90	36.1581920903955	36.241610738255	12	0.400040496066213	2	4	1	NaN	1	4	0.07020130164029	0	1	NaN	393	7	15	1	120	220	320	NaN	520	0.0103949278127402	1	1	NaN	1735287.6006512	NaN	1735288.5840428	1735289.10058817
41	19	1	0	90	36.1581920903955	36.241610738255	13	0.43337720407173	2	8	1	NaN	2	5	0.07020130164029	0	1	NaN	394	7	16	1	120	220	320	NaN	520	0.0103919277898967	1	0	NaN	1735289.9342064	NaN	1735290.9175881	1735291.43415087
41	19	1	0	90	36.1581920903955	36.241610738255	9	0.300030372049659	2	7	3	NaN	2	3	0.07020130164029	0	1	NaN	395	7	17	1	120	220	320	NaN	520	0.0957389755640179	2	1	NaN	1735292.2676372	NaN	1735293.2512111	1735293.76770382
41	19	1	0	90	36.1581920903955	36.241610738255	20	0.666734160110354	2	8	3	NaN	2	3	0.07020130164029	0	1	NaN	396	7	18	1	120	220	320	NaN	520	0.766984475543723	1	0	NaN	1735294.6845585	NaN	1735295.6680453	1735296.18461502
41	19	1	0	90	36.1581920903955	36.241610738255	18	0.600060744099319	2	7	3	NaN	2	3	0.07020130164029	0	1	NaN	397	7	19	1	120	220	320	NaN	520	0.267151275649667	2	1	NaN	1735297.7683115	NaN	1735298.7517046	1735299.26824122
41	19	1	0	90	36.1581920903955	36.241610738255	18	0.600060744099319	2	2	6	NaN	1	3	0.07020130164029	0	1	NaN	398	7	20	1	120	220	320	NaN	520	0.0103618318680674	2	0	NaN	1735300.3517731	NaN	1735301.3352853	1735301.85184207
41	19	1	0	90	36.1581920903955	36.241610738255	7	0.233356956038624	2	7	1	NaN	2	5	0.07020130164029	0	1	NaN	399	7	21	1	120	220	320	NaN	520	0.141994075616822	2	1	NaN	1735302.6854239	NaN	1735303.6687572	1735304.18540392
41	19	1	0	90	36.1581920903955	36.241610738255	25	0.833417700137943	2	6	4	NaN	1	3	0.07020130164029	0	1	NaN	400	7	22	1	120	220	320	NaN	520	0.0103953275829554	1	1	NaN	1735305.1522784	NaN	1735306.1357499	1735306.65230227
41	19	1	0	90	36.1581920903955	36.241610738255	14	0.466713912077248	2	10	2	NaN	2	4	0.07020130164029	0	1	NaN	401	7	23	1	120	220	320	NaN	520	0.010409475537017	1	0	NaN	1735307.4859242	NaN	1735308.4693208	1735308.98586732
41	19	1	0	90	36.1581920903955	36.241610738255	9	0.300030372049659	2	3	5	NaN	1	4	0.07020130164029	0	1	NaN	402	7	24	1	120	220	320	NaN	520	0.0104018757119775	1	1	NaN	1735309.8027452	NaN	1735310.7862552	1735311.30276542
41	19	1	0	90	36.1581920903955	36.241610738255	10	0.333367080055177	2	7	5	NaN	2	4	0.07020130164029	0	1	NaN	403	7	25	1	120	220	320	NaN	520	0.0104205755051225	1	0	NaN	1735312.1363812	NaN	1735313.1197877	1735313.63632102
41	19	1	0	90	36.1581920903955	36.241610738255	17	0.566724036093801	2	7	6	NaN	2	3	0.07020130164029	0	1	NaN	404	7	26	1	120	220	320	NaN	520	0.0103281356859952	2	1	NaN	1735314.46994	NaN	1735315.4533273	1735315.96988876
41	19	1	0	90	36.1581920903955	36.241610738255	23	0.766744284126908	2	3	4	NaN	1	4	0.07020130164029	0	1	NaN	405	7	27	1	120	220	320	NaN	520	0.272017079638317	1	1	NaN	1735316.8034994	NaN	1735317.7869433	1735318.30345062
41	19	1	0	90	36.1581920903955	36.241610738255	9	0.300030372049659	2	10	1	NaN	2	3	0.07020130164029	0	1	NaN	406	7	28	1	120	220	320	NaN	520	0.0103898278903216	2	1	NaN	1735319.5705245	NaN	1735320.5538784	1735321.07038727
41	19	1	0	90	36.1581920903955	36.241610738255	10	0.333367080055177	2	10	1	NaN	2	3	0.07020130164029	0	1	NaN	407	7	29	1	120	220	320	NaN	520	0.0104196756146848	2	1	NaN	1735321.9040023	NaN	1735322.8874081	1735323.40394702
41	19	1	0	90	36.1581920903955	36.241610738255	22	0.73340757612139	2	9	5	NaN	2	4	0.07020130164029	0	1	NaN	408	7	30	1	120	220	320	NaN	520	0.0103802795056254	2	1	NaN	1735324.2375655	NaN	1735325.220959	1735325.73751742
41	19	1	0	90	36.1581920903955	36.241610738255	25	0.833417700137943	2	4	5	NaN	1	4	0.07020130164029	0	1	NaN	409	7	31	1	120	220	320	NaN	520	0.0104045756161213	1	1	NaN	1735326.571135	NaN	1735327.5545285	1735328.07107502
41	19	1	0	90	36.1581920903955	36.241610738255	14	0.466713912077248	2	1	3	NaN	1	4	0.07020130164029	0	1	NaN	410	7	32	1	120	220	320	NaN	520	0.0352895278483629	1	1	NaN	1735328.8880398	NaN	1735329.8714877	1735330.38797187
41	19	1	0	90	36.1581920903955	36.241610738255	24	0.800080992132425	2	8	5	NaN	2	4	0.07020130164029	0	1	NaN	411	7	33	1	120	220	320	NaN	520	0.0371248277369887	2	1	NaN	1735331.238232	NaN	1735332.2216575	1735332.73820617
41	19	1	0	90	36.1581920903955	36.241610738255	8	0.266693664044142	2	5	5	NaN	1	5	0.07020130164029	0	1	NaN	412	7	34	1	120	220	320	NaN	520	0.0104084755294025	1	1	NaN	1735333.5884862	NaN	1735334.5718766	1735335.08842562
41	19	1	0	90	36.1581920903955	36.241610738255	19	0.633397452104837	2	10	1	NaN	2	5	0.07020130164029	0	1	NaN	413	7	35	1	120	220	320	NaN	520	0.0104063276667148	2	1	NaN	1735335.9220466	NaN	1735336.9054505	1735337.42198847
41	19	1	0	90	36.1581920903955	36.241610738255	21	0.700070868115872	2	12	2	NaN	2	4	0.07020130164029	0	1	NaN	414	7	36	1	120	220	320	NaN	520	0.0104221755173057	2	1	NaN	1735338.2389522	NaN	1735339.2223283	1735339.73889062
41	19	1	0	90	36.1581920903955	36.241610738255	9	0.300030372049659	2	12	6	NaN	2	5	0.07020130164029	0	1	NaN	415	7	37	1	120	220	320	NaN	520	0.567838927730918	2	1	NaN	1735340.5558467	NaN	1735341.5392433	1735342.05577567
41	19	1	0	90	36.1581920903955	36.241610738255	16	0.533387328088283	2	5	4	NaN	1	3	0.07020130164029	0	1	NaN	416	7	38	1	120	220	320	NaN	520	0.187976975692436	1	1	NaN	1735343.4393464	NaN	1735344.4228392	1735344.93939872
41	19	1	0	90	36.1581920903955	36.241610738255	6	0.200020248033106	2	11	5	NaN	2	3	0.07020130164029	0	1	NaN	417	7	39	1	120	220	320	NaN	520	0.223623044090346	2	1	NaN	1735345.9395652	NaN	1735346.9230884	1735347.43964886
41	19	1	0	90	36.1581920903955	36.241610738255	25	0.833417700137943	2	5	3	NaN	1	4	0.07020130164029	0	1	NaN	418	7	40	1	120	220	320	NaN	520	0.201898023718968	1	1	NaN	1735348.4899107	NaN	1735349.473336	1735349.98989298
41	19	1	0	90	36.1581920903955	36.241610738255	12	0.400040496066213	2	3	1	NaN	1	5	0.07020130164029	0	1	NaN	419	7	41	1	120	220	320	NaN	520	0.148772275540978	2	0	NaN	1735351.0068466	NaN	1735351.9902623	1735352.50680902
41	19	1	0	90	36.1581920903955	36.241610738255	19	0.633397452104837	2	8	1	NaN	2	4	0.07020130164029	0	1	NaN	420	7	42	1	120	220	320	NaN	520	0.417994075687602	1	0	NaN	1735353.473751	NaN	1735354.4571606	1735354.97371052
41	19	1	0	90	36.1581920903955	36.241610738255	9	0.300030372049659	2	6	4	NaN	1	4	0.07020130164029	0	1	NaN	421	7	43	1	120	220	320	NaN	520	0.010411475552246	1	1	NaN	1735356.2072478	NaN	1735357.1907636	1735357.70731282
41	19	1	0	90	36.1581920903955	36.241610738255	15	0.500050620082766	2	1	6	NaN	1	5	0.07020130164029	0	1	NaN	422	7	44	1	120	220	320	NaN	520	0.166768279625103	2	0	NaN	1735358.5409252	NaN	1735359.5243706	1735360.04088812
41	19	1	0	90	36.1581920903955	36.241610738255	10	0.333367080055177	2	5	2	NaN	1	4	0.07020130164029	0	1	NaN	423	7	45	1	120	220	320	NaN	520	0.0104143756907433	1	1	NaN	1735361.0245039	NaN	1735362.0079172	1735362.52445662
41	19	1	0	90	36.1581920903955	36.241610738255	15	0.500050620082766	2	8	4	NaN	2	4	0.07020130164029	0	1	NaN	424	7	46	1	120	220	320	NaN	520	0.33392012771219	2	1	NaN	1735363.3414058	NaN	1735364.324789	1735364.84135577
41	19	1	0	90	36.1581920903955	36.241610738255	13	0.43337720407173	2	5	5	NaN	1	3	0.07020130164029	0	1	NaN	425	7	47	1	120	220	320	NaN	520	0.203877327730879	1	1	NaN	1735365.991538	NaN	1735366.9750655	1735367.49161757
41	19	1	0	90	36.1581920903955	36.241610738255	25	0.833417700137943	2	2	1	NaN	1	3	0.07020130164029	0	1	NaN	426	7	48	1	120	220	320	NaN	520	0.010409475537017	1	1	NaN	1735368.5085936	NaN	1735369.4919904	1735370.00852412
41	19	1	0	90	36.1581920903955	36.241610738255	17	0.566724036093801	2	6	1	NaN	1	5	0.07020130164029	0	1	NaN	427	7	49	1	120	220	320	NaN	520	0.0104206756222993	1	1	NaN	1735370.8421381	NaN	1735371.8255536	1735372.34208672
41	19	1	0	90	36.1581920903955	36.241610738255	17	0.566724036093801	2	8	3	NaN	2	4	0.07020130164029	0	1	NaN	428	7	50	1	120	220	320	NaN	520	0.010391327785328	2	1	NaN	1735373.1755784	NaN	1735374.1591436	1735374.67565607
41	19	1	0	90	36.1581920903955	36.241610738255	10	0.333367080055177	2	8	5	NaN	2	3	0.07020130164029	0	1	NaN	429	7	51	1	120	220	320	NaN	520	0.0104233755264431	1	0	NaN	1735375.5091338	NaN	1735376.492672	1735377.00921292
41	19	1	0	90	36.1581920903955	36.241610738255	20	0.666734160110354	2	2	3	NaN	1	4	0.07020130164029	0	1	NaN	430	7	52	1	120	220	320	NaN	520	0.0103754797019064	2	0	NaN	1735377.8428435	NaN	1735378.826213	1735379.34277352
41	19	1	0	90	36.1581920903955	36.241610738255	24	0.800080992132425	2	12	2	NaN	2	5	0.07020130164029	0	1	NaN	431	7	53	1	120	220	320	NaN	520	0.010407775407657	2	1	NaN	1735380.1764128	NaN	1735381.1597934	1735381.67633472
41	19	1	0	90	36.1581920903955	36.241610738255	13	0.43337720407173	2	7	3	NaN	2	4	0.07020130164029	0	1	NaN	432	7	54	1	120	220	320	NaN	520	0.237916744081303	1	0	NaN	1735382.4932197	NaN	1735383.4766814	1735383.99323836
41	19	1	0	90	36.1581920903955	36.241610738255	10	0.333367080055177	2	7	1	NaN	2	3	0.07020130164029	0	1	NaN	433	7	55	1	120	220	320	NaN	520	0.010391027899459	2	1	NaN	1735385.0435362	NaN	1735386.0269305	1735386.54348607
41	19	1	0	90	36.1581920903955	36.241610738255	21	0.700070868115872	2	9	6	NaN	2	5	0.07020130164029	0	1	NaN	434	7	56	1	120	220	320	NaN	520	0.394920975435525	2	1	NaN	1735387.3771052	NaN	1735388.3604844	1735388.87704092
41	19	1	0	90	36.1581920903955	36.241610738255	25	0.833417700137943	2	4	5	NaN	1	5	0.07020130164029	0	1	NaN	435	7	57	1	120	220	320	NaN	520	0.0103924276772887	1	1	NaN	1735390.0939285	NaN	1735391.0774289	1735391.59397297
41	19	1	0	90	36.1581920903955	36.241610738255	9	0.300030372049659	2	12	5	NaN	2	5	0.07020130164029	0	1	NaN	436	7	58	1	120	220	320	NaN	520	0.352625327883288	2	1	NaN	1735392.4109639	NaN	1735393.3943654	1735393.91087327
41	19	1	0	90	36.1581920903955	36.241610738255	7	0.233356956038624	2	2	1	NaN	1	4	0.07020130164029	0	1	NaN	437	7	59	1	120	220	320	NaN	520	0.277596523752436	1	1	NaN	1735395.0778609	NaN	1735396.0612543	1735396.57779838
41	19	1	0	90	36.1581920903955	36.241610738255	14	0.466713912077248	2	2	1	NaN	1	4	0.07020130164029	0	1	NaN	438	7	60	1	120	220	320	NaN	520	0.51767697557807	1	1	NaN	1735397.6781228	NaN	1735398.6615011	1735399.17804972
41	19	1	0	90	36.1581920903955	36.241610738255	6	0.200020248033106	2	9	2	NaN	2	4	0.07020130164029	0	1	NaN	439	7	61	1	120	220	320	NaN	520	0.0104049756191671	1	0	NaN	1735400.5117256	NaN	1735401.4951214	1735402.01167182
41	19	1	0	90	36.1581920903955	36.241610738255	18	0.600060744099319	2	4	1	NaN	1	4	0.07020130164029	0	1	NaN	440	7	62	1	120	220	320	NaN	520	0.0104080755263567	1	1	NaN	1735402.845299	NaN	1735403.828679	1735404.34522692
41	19	1	0	90	36.1581920903955	36.241610738255	18	0.600060744099319	2	1	1	NaN	1	4	0.07020130164029	0	1	NaN	441	7	63	1	120	220	320	NaN	520	0.0103924276772887	2	0	NaN	1735405.1788532	NaN	1735406.1622485	1735406.67879747
41	19	1	0	90	36.1581920903955	36.241610738255	18	0.600060744099319	2	10	4	NaN	2	3	0.07020130164029	0	1	NaN	442	8	1	1	120	220	320	NaN	520	0.239081675652415	2	1	NaN	1735414.3963938	NaN	1735415.3798633	1735415.89636782
41	19	1	0	90	36.1581920903955	36.241610738255	23	0.766744284126908	2	8	2	NaN	2	5	0.07020130164029	0	1	NaN	443	8	2	1	120	220	320	NaN	520	0.0104073754046112	2	1	NaN	1735416.9466809	NaN	1735417.9300683	1735418.44662102
41	19	1	0	90	36.1581920903955	36.241610738255	16	0.533387328088283	2	1	1	NaN	1	3	0.07020130164029	0	1	NaN	444	8	3	1	120	220	320	NaN	520	0.0104043756145984	1	1	NaN	1735419.2802416	NaN	1735420.2636382	1735420.78018552
41	19	1	0	90	36.1581920903955	36.241610738255	20	0.666734160110354	2	11	6	NaN	2	4	0.07020130164029	0	1	NaN	445	8	4	1	120	220	320	NaN	520	0.293810323812068	2	1	NaN	1735421.6137877	NaN	1735422.5971855	1735423.11373828
41	19	1	0	90	36.1581920903955	36.241610738255	15	0.500050620082766	2	8	4	NaN	2	4	0.07020130164029	0	1	NaN	446	8	5	1	120	220	320	NaN	520	0.0103897275403142	1	0	NaN	1735424.2307267	NaN	1735425.2141152	1735425.73067067
41	19	1	0	90	36.1581920903955	36.241610738255	0	0	1	7	1	NaN	2	5	0.07020130164029	0	1	NaN	447	8	6	1	110	210	310	NaN	510	0.199377875542268	2	1	NaN	1735426.564278	NaN	1735427.5476757	1735428.06423052
41	19	1	0	90	36.1581920903955	36.241610738255	9	0.300030372049659	2	5	3	NaN	1	3	0.07020130164029	0	1	NaN	448	8	7	1	120	220	320	NaN	520	0.0104208237025887	1	1	NaN	1735429.0811298	NaN	1735430.064596	1735430.58113918
41	19	1	0	90	36.1581920903955	36.241610738255	12	0.400040496066213	2	2	2	NaN	1	5	0.07020130164029	0	1	NaN	449	8	8	1	120	220	320	NaN	520	0.0104018277488649	1	1	NaN	1735431.4146428	NaN	1735432.3981494	1735432.91470617
41	19	1	0	90	36.1581920903955	36.241610738255	6	0.200020248033106	2	10	6	NaN	2	3	0.07020130164029	0	1	NaN	450	8	9	1	120	220	320	NaN	520	0.0103910276666284	2	1	NaN	1735433.7483262	NaN	1735434.7317112	1735435.24828497
41	19	1	0	90	36.1581920903955	36.241610738255	8	0.266693664044142	2	7	4	NaN	2	5	0.07020130164029	0	1	NaN	451	8	10	1	120	220	320	NaN	520	0.153677039779723	1	0	NaN	1735436.0818553	NaN	1735437.0652723	1735437.58183306
41	19	1	0	90	36.1581920903955	36.241610738255	10	0.333367080055177	2	11	3	NaN	2	4	0.07020130164029	0	1	NaN	452	8	11	1	120	220	320	NaN	520	0.0103189877700061	2	1	NaN	1735438.5487761	NaN	1735439.5322202	1735440.04874691
41	19	1	0	90	36.1581920903955	36.241610738255	6	0.200020248033106	2	5	3	NaN	1	3	0.07020130164029	0	1	NaN	453	8	12	1	120	220	320	NaN	520	0.0104105756618083	1	1	NaN	1735440.88237	NaN	1735441.8657491	1735442.38230562
41	19	1	0	90	36.1581920903955	36.241610738255	22	0.73340757612139	2	4	3	NaN	1	3	0.07020130164029	0	1	NaN	454	8	13	1	120	220	320	NaN	520	0.010420823469758	1	1	NaN	1735443.215918	NaN	1735444.1993001	1735444.71585588
41	19	1	0	90	36.1581920903955	36.241610738255	22	0.73340757612139	2	3	5	NaN	1	5	0.07020130164029	0	1	NaN	455	8	14	1	120	220	320	NaN	520	0.0104086755309254	1	1	NaN	1735445.5327957	NaN	1735446.5162013	1735447.03275942
41	19	1	0	90	36.1581920903955	36.241610738255	9	0.300030372049659	2	5	6	NaN	1	3	0.07020130164029	0	1	NaN	456	8	15	1	120	220	320	NaN	520	0.0104079754091799	1	1	NaN	1735447.8496911	NaN	1735448.8330947	1735449.34964392
41	19	1	0	90	36.1581920903955	36.241610738255	24	0.800080992132425	2	1	6	NaN	1	4	0.07020130164029	0	1	NaN	457	8	16	1	120	220	320	NaN	520	0.0104062755126506	1	1	NaN	1735450.1832849	NaN	1735451.1666485	1735451.68321122
41	19	1	0	90	36.1581920903955	36.241610738255	13	0.43337720407173	2	11	3	NaN	2	4	0.07020130164029	0	1	NaN	458	8	17	1	120	220	320	NaN	520	0.0104077756404877	2	1	NaN	1735452.5167255	NaN	1735453.5002349	1735454.01677212
41	19	1	0	90	36.1581920903955	36.241610738255	0	0	1	2	4	NaN	1	5	0.07020130164029	0	1	NaN	459	8	18	1	110	210	310	NaN	510	0.0103914279025048	1	1	NaN	1735454.8337133	NaN	1735455.8170918	1735456.33367477
41	19	1	0	90	36.1581920903955	36.241610738255	21	0.700070868115872	2	4	3	NaN	1	4	0.07020130164029	0	1	NaN	460	8	19	1	120	220	320	NaN	520	0.852529575582594	1	1	NaN	1735457.1672909	NaN	1735458.1506926	1735458.66723082
41	19	1	0	90	36.1581920903955	36.241610738255	15	0.500050620082766	2	7	2	NaN	2	5	0.07020130164029	0	1	NaN	461	8	20	1	120	220	320	NaN	520	0.197611587820575	1	0	NaN	1735460.3341854	NaN	1735461.3176485	1735461.83421721
41	19	1	0	90	36.1581920903955	36.241610738255	22	0.73340757612139	2	8	3	NaN	2	3	0.07020130164029	0	1	NaN	462	8	21	1	120	220	320	NaN	520	0.128481527790427	2	1	NaN	1735462.8512039	NaN	1735463.8346756	1735464.35112807
