subjno	age	gender	isPractice	viewdist	CmToPixX	CmToPixY	SOA_frm	SOA_time	targNum	targID	targExample	targRace	targGender	firstTargPos	contrast	familiarity	curr_staircase	iStair	TrialNum	BlockNum	blktrl	sessionNum	TC_FIXATION	TC_RSVP_START	TC_RSVP_END	TC_BLANK	TC_RESPONSE_ONSET	RT2afc	resp_2afc	acc	RSVPOnsetVBL	RSVPOnsetTime	RSVPOffsetVBL	RSVPOffsetTime	startrt_2afc
58	21	1	0	90	36.1581920903955	36.241610738255	8	0.266684576272964	2	5	4	NaN	1	4	0.19294284117267	0	1	NaN	1	1	1	2	120	220	320	NaN	520	0.102062274701893	2	0	NaN	4911401.7796498	NaN	4911402.7629131	4911403.29603443
58	21	1	0	90	36.1581920903955	36.241610738255	10	0.333355720341206	2	2	3	NaN	1	4	0.19294284117267	0	1	NaN	2	1	2	2	120	220	320	NaN	520	0.0784871270880103	2	0	NaN	4911404.7631313	NaN	4911405.7465337	4911406.27966517
58	21	1	0	90	36.1581920903955	36.241610738255	12	0.400026864409447	2	5	6	NaN	1	3	0.19294284117267	0	1	NaN	3	1	3	2	120	220	320	NaN	520	0.0107185589149594	1	1	NaN	4911407.180041	NaN	4911408.1633682	4911408.67989384
58	21	1	0	90	36.1581920903955	36.241610738255	25	0.833389300853014	2	2	2	NaN	1	5	0.19294284117267	0	1	NaN	4	1	4	2	120	220	320	NaN	520	0.144775269553065	1	1	NaN	4911409.5135027	NaN	4911410.4969009	4911411.01345343
58	21	1	0	90	36.1581920903955	36.241610738255	10	0.333355720341206	2	6	3	NaN	1	5	0.19294284117267	0	1	NaN	5	1	5	2	120	220	320	NaN	520	0.181661369279027	1	1	NaN	4911411.9803967	NaN	4911412.9638048	4911413.48037043
58	21	1	0	90	36.1581920903955	36.241610738255	20	0.666711440682411	2	12	1	NaN	2	3	0.19294284117267	0	1	NaN	6	1	6	2	120	220	320	NaN	520	0.040839921683073	1	0	NaN	4911414.4973271	NaN	4911415.4807607	4911415.99727668
58	21	1	0	90	36.1581920903955	36.241610738255	25	0.833389300853014	2	8	1	NaN	2	5	0.19294284117267	0	1	NaN	7	1	7	2	120	220	320	NaN	520	0.0744317695498466	2	1	NaN	4911416.8475826	NaN	4911417.8309676	4911418.34752003
58	21	1	0	90	36.1581920903955	36.241610738255	24	0.800053728818893	2	3	3	NaN	1	3	0.19294284117267	0	1	NaN	8	1	8	2	120	220	320	NaN	520	0.0103940218687057	1	1	NaN	4911419.2478278	NaN	4911420.2311859	4911420.74774828
58	21	1	0	90	36.1581920903955	36.241610738255	0	0	1	7	2	NaN	2	4	0.19294284117267	0	1	NaN	9	1	9	2	110	210	310	NaN	510	0.220668769441545	1	0	NaN	4911421.5813461	NaN	4911422.5647455	4911423.08131453
58	21	1	0	90	36.1581920903955	36.241610738255	16	0.533369152545929	2	12	1	NaN	2	4	0.19294284117267	0	1	NaN	10	1	10	2	120	220	320	NaN	520	0.126640253700316	2	1	NaN	4911424.1314924	NaN	4911425.115003	4911425.63155585
58	21	1	0	90	36.1581920903955	36.241610738255	18	0.60004029661417	2	5	6	NaN	1	5	0.19294284117267	0	1	NaN	11	1	11	2	120	220	320	NaN	520	2.09218432102352	1	1	NaN	4911426.5818544	NaN	4911427.5652597	4911428.08180418
58	21	1	0	90	36.1581920903955	36.241610738255	9	0.300020148307085	2	7	1	NaN	2	5	0.19294284117267	0	1	NaN	12	1	12	2	120	220	320	NaN	520	2.10295087937266	1	0	NaN	4911431.0988301	NaN	4911432.082358	4911432.59892142
58	21	1	0	90	36.1581920903955	36.241610738255	0	0	1	7	6	NaN	2	3	0.19294284117267	0	1	NaN	13	1	13	2	110	210	310	NaN	510	0.144507621414959	2	1	NaN	4911435.6492924	NaN	4911436.6328133	4911437.14935988
58	21	1	0	90	36.1581920903955	36.241610738255	22	0.733382584750652	2	12	5	NaN	2	4	0.19294284117267	0	1	NaN	14	1	14	2	120	220	320	NaN	520	0.10187556874007	2	1	NaN	4911438.1161838	NaN	4911439.0997222	4911439.61626923
58	21	1	0	90	36.1581920903955	36.241610738255	18	0.60004029661417	2	2	3	NaN	1	5	0.19294284117267	0	1	NaN	15	1	15	2	120	220	320	NaN	520	0.532362169586122	2	0	NaN	4911440.5497571	NaN	4911441.5332659	4911442.04984843
58	21	1	0	90	36.1581920903955	36.241610738255	20	0.666711440682411	2	6	5	NaN	1	3	0.19294284117267	0	1	NaN	16	1	16	2	120	220	320	NaN	520	0.433768321759999	1	1	NaN	4911443.4001866	NaN	4911444.3835715	4911444.90012208
58	21	1	0	90	36.1581920903955	36.241610738255	12	0.400026864409447	2	12	1	NaN	2	5	0.19294284117267	0	1	NaN	17	1	17	2	120	220	320	NaN	520	0.219672969542444	1	0	NaN	4911446.1504346	NaN	4911447.1338383	4911447.65039583
58	21	1	0	90	36.1581920903955	36.241610738255	0	0	1	1	4	NaN	1	4	0.19294284117267	0	1	NaN	18	1	18	2	110	210	310	NaN	510	0.286306869238615	1	1	NaN	4911448.6840319	NaN	4911449.6674291	4911450.18397343
58	21	1	0	90	36.1581920903955	36.241610738255	14	0.466698008477688	2	3	1	NaN	1	5	0.19294284117267	0	1	NaN	19	1	19	2	120	220	320	NaN	520	0.237834121100605	1	1	NaN	4911451.2842923	NaN	4911452.2676836	4911452.78423678
58	21	1	0	90	36.1581920903955	36.241610738255	7	0.233349004238844	2	9	5	NaN	2	3	0.19294284117267	0	1	NaN	20	1	20	2	120	220	320	NaN	520	0.359944121912122	1	0	NaN	4911453.8344135	NaN	4911454.8179523	4911455.33448768
58	21	1	0	90	36.1581920903955	36.241610738255	10	0.333355720341206	2	3	5	NaN	1	5	0.19294284117267	0	1	NaN	21	1	21	2	120	220	320	NaN	520	0.11696866992861	2	0	NaN	4911456.7013577	NaN	4911457.6848847	4911458.20142943
58	21	1	0	90	36.1581920903955	36.241610738255	6	0.200013432204723	2	6	2	NaN	1	5	0.19294284117267	0	1	NaN	22	1	22	2	120	220	320	NaN	520	0.243370169773698	1	1	NaN	4911459.1350429	NaN	4911460.1184501	4911460.63500133
58	21	1	0	90	36.1581920903955	36.241610738255	8	0.266684576272964	2	7	5	NaN	2	5	0.19294284117267	0	1	NaN	23	1	23	2	120	220	320	NaN	520	0.223982721567154	1	0	NaN	4911462.0019827	NaN	4911462.9854006	4911463.50195158
58	21	1	0	90	36.1581920903955	36.241610738255	24	0.800053728818893	2	8	1	NaN	2	5	0.19294284117267	0	1	NaN	24	1	24	2	120	220	320	NaN	520	0.617957799695432	1	0	NaN	4911464.5522567	NaN	4911465.5356443	4911466.0522106
58	21	1	0	90	36.1581920903955	36.241610738255	19	0.633375868648291	2	11	6	NaN	2	5	0.19294284117267	0	1	NaN	25	1	25	2	120	220	320	NaN	520	0.391785321757197	2	1	NaN	4911467.8025373	NaN	4911468.7859768	4911469.30252838
58	21	1	0	90	36.1581920903955	36.241610738255	11	0.366691292375326	2	7	5	NaN	2	3	0.19294284117267	0	1	NaN	26	1	26	2	120	220	320	NaN	520	0.202433168888092	2	1	NaN	4911470.5195867	NaN	4911471.5028878	4911472.01946993
58	21	1	0	90	36.1581920903955	36.241610738255	9	0.300020148307085	2	2	5	NaN	1	3	0.19294284117267	0	1	NaN	27	1	27	2	120	220	320	NaN	520	0.228212669491768	2	0	NaN	4911473.4698055	NaN	4911474.4532034	4911474.96974853
58	21	1	0	90	36.1581920903955	36.241610738255	25	0.833389300853014	2	12	1	NaN	2	4	0.19294284117267	0	1	NaN	28	1	28	2	120	220	320	NaN	520	0.222294521518052	1	0	NaN	4911476.2199538	NaN	4911477.2034243	4911477.72001888
58	21	1	0	90	36.1581920903955	36.241610738255	21	0.700047012716532	2	5	2	NaN	1	4	0.19294284117267	0	1	NaN	29	1	29	2	120	220	320	NaN	520	0.344366420991719	1	1	NaN	4911478.7535843	NaN	4911479.7370592	4911480.25360408
58	21	1	0	90	36.1581920903955	36.241610738255	17	0.56670472458005	2	10	5	NaN	2	5	0.19294284117267	0	1	NaN	30	1	30	2	120	220	320	NaN	520	0.349429469555616	1	0	NaN	4911481.4204651	NaN	4911482.4039766	4911482.92052343
58	21	1	0	90	36.1581920903955	36.241610738255	19	0.633375868648291	2	12	2	NaN	2	3	0.19294284117267	0	1	NaN	31	1	31	2	120	220	320	NaN	520	0.381700321100652	2	1	NaN	4911484.8043084	NaN	4911485.7876194	4911486.30421708
58	21	1	0	90	36.1581920903955	36.241610738255	11	0.366691292375326	2	4	5	NaN	1	3	0.19294284117267	0	1	NaN	32	1	32	2	120	220	320	NaN	520	0.329668421298265	1	1	NaN	4911487.5045014	NaN	4911488.4878905	4911489.00445608
58	21	1	0	90	36.1581920903955	36.241610738255	7	0.233349004238844	2	1	3	NaN	1	5	0.19294284117267	0	1	NaN	33	1	33	2	120	220	320	NaN	520	0.468611769378185	1	1	NaN	4911490.6214478	NaN	4911491.6049563	4911492.12142663
58	21	1	0	90	36.1581920903955	36.241610738255	0	0	1	5	6	NaN	1	4	0.19294284117267	0	1	NaN	34	1	34	2	110	210	310	NaN	510	0.0365009689703584	1	1	NaN	4911493.4217595	NaN	4911494.405158	4911494.92170503
58	21	1	0	90	36.1581920903955	36.241610738255	24	0.800053728818893	2	1	3	NaN	1	5	0.19294284117267	0	1	NaN	35	1	35	2	120	220	320	NaN	520	0.478471121750772	1	1	NaN	4911495.7719816	NaN	4911496.7553761	4911497.27194388
58	21	1	0	90	36.1581920903955	36.241610738255	22	0.733382584750652	2	2	3	NaN	1	3	0.19294284117267	0	1	NaN	36	1	36	2	120	220	320	NaN	520	0.86266496963799	1	1	NaN	4911498.5555076	NaN	4911499.5390148	4911500.05554103
58	21	1	0	90	36.1581920903955	36.241610738255	7	0.233349004238844	2	3	6	NaN	1	3	0.19294284117267	0	1	NaN	37	1	37	2	120	220	320	NaN	520	0.311229269951582	2	0	NaN	4911501.739255	NaN	4911502.7226452	4911503.23918293
58	21	1	0	90	36.1581920903955	36.241610738255	10	0.333355720341206	2	2	4	NaN	1	4	0.19294284117267	0	1	NaN	38	1	38	2	120	220	320	NaN	520	0.461374869570136	2	0	NaN	4911504.3728302	NaN	4911505.3562283	4911505.87278003
58	21	1	0	90	36.1581920903955	36.241610738255	21	0.700047012716532	2	12	2	NaN	2	5	0.19294284117267	0	1	NaN	39	1	39	2	120	220	320	NaN	520	0.134468069300056	2	1	NaN	4911507.1397095	NaN	4911508.1231779	4911508.63971453
58	21	1	0	90	36.1581920903955	36.241610738255	24	0.800053728818893	2	9	3	NaN	2	3	0.19294284117267	0	1	NaN	40	1	40	2	120	220	320	NaN	520	0.196777816861868	2	1	NaN	4911509.5732453	NaN	4911510.5567444	4911511.07329368
58	21	1	0	90	36.1581920903955	36.241610738255	24	0.800053728818893	2	7	1	NaN	2	5	0.19294284117267	0	1	NaN	41	1	41	2	120	220	320	NaN	520	0.0104280160740018	2	1	NaN	4911512.0902696	NaN	4911513.0736916	4911513.59020858
58	21	1	0	90	36.1581920903955	36.241610738255	15	0.500033580511808	2	1	3	NaN	1	4	0.19294284117267	0	1	NaN	42	1	42	2	120	220	320	NaN	520	0.0104268752038479	1	1	NaN	4911514.4070347	NaN	4911515.3905513	4911515.90710982
58	21	1	0	90	36.1581920903955	36.241610738255	17	0.56670472458005	2	2	6	NaN	1	5	0.19294284117267	0	1	NaN	43	1	43	2	120	220	320	NaN	520	0.58925336971879	1	1	NaN	4911516.7407077	NaN	4911517.7241161	4911518.24065753
58	21	1	0	90	36.1581920903955	36.241610738255	22	0.733382584750652	2	6	1	NaN	1	3	0.19294284117267	0	1	NaN	44	1	44	2	120	220	320	NaN	520	0.305089469067752	1	1	NaN	4911519.6409928	NaN	4911520.6243726	4911521.14095533
58	21	1	0	90	36.1581920903955	36.241610738255	20	0.666711440682411	2	1	3	NaN	1	3	0.19294284117267	0	1	NaN	45	1	45	2	120	220	320	NaN	520	0.240182322449982	1	1	NaN	4911522.2579229	NaN	4911523.2413236	4911523.75787598
58	21	1	0	90	36.1581920903955	36.241610738255	24	0.800053728818893	2	12	6	NaN	2	4	0.19294284117267	0	1	NaN	46	1	46	2	120	220	320	NaN	520	0.114026021212339	1	0	NaN	4911524.808175	NaN	4911525.7915717	4911526.30813048
58	21	1	0	90	36.1581920903955	36.241610738255	24	0.800053728818893	2	10	4	NaN	2	3	0.19294284117267	0	1	NaN	47	1	47	2	120	220	320	NaN	520	0.249428769573569	2	1	NaN	4911527.2250994	NaN	4911528.2084824	4911528.72502503
58	21	1	0	90	36.1581920903955	36.241610738255	7	0.233349004238844	2	1	5	NaN	1	3	0.19294284117267	0	1	NaN	48	1	48	2	120	220	320	NaN	520	0.290533321909606	2	0	NaN	4911529.7919943	NaN	4911530.7753877	4911531.29194078
58	21	1	0	90	36.1581920903955	36.241610738255	10	0.333355720341206	2	3	1	NaN	1	5	0.19294284117267	0	1	NaN	49	1	49	2	120	220	320	NaN	520	0.449809169396758	2	0	NaN	4911532.3922474	NaN	4911533.3756985	4911533.89220143
58	21	1	0	90	36.1581920903955	36.241610738255	6	0.200013432204723	2	12	4	NaN	2	5	0.19294284117267	0	1	NaN	50	1	50	2	120	220	320	NaN	520	0.243054221384227	2	1	NaN	4911535.1591976	NaN	4911536.1425884	4911536.65913898
58	21	1	0	90	36.1581920903955	36.241610738255	0	0	1	3	2	NaN	1	5	0.19294284117267	0	1	NaN	51	1	51	2	110	210	310	NaN	510	0.238746821880341	1	1	NaN	4911538.0593464	NaN	4911539.0428796	4911539.55943338
58	21	1	0	90	36.1581920903955	36.241610738255	12	0.400026864409447	2	4	4	NaN	1	5	0.19294284117267	0	1	NaN	52	1	52	2	120	220	320	NaN	520	0.39266992174089	2	0	NaN	4911540.6095809	NaN	4911541.5931558	4911542.10968268
58	21	1	0	90	36.1581920903955	36.241610738255	17	0.56670472458005	2	1	3	NaN	1	5	0.19294284117267	0	1	NaN	53	1	53	2	120	220	320	NaN	520	0.0103982212021947	1	1	NaN	4911543.3266526	NaN	4911544.3100334	4911544.82661258
58	21	1	0	90	36.1581920903955	36.241610738255	22	0.733382584750652	2	7	3	NaN	2	5	0.19294284117267	0	1	NaN	54	1	54	2	120	220	320	NaN	520	0.286295169964433	1	0	NaN	4911545.6601042	NaN	4911546.6436484	4911547.16016693
58	21	1	0	90	36.1581920903955	36.241610738255	15	0.500033580511808	2	4	3	NaN	1	5	0.19294284117267	0	1	NaN	55	1	55	2	120	220	320	NaN	520	0.469770922325552	1	1	NaN	4911548.2604737	NaN	4911549.2438598	4911549.76043118
58	21	1	0	90	36.1581920903955	36.241610738255	13	0.433362436443567	2	3	6	NaN	1	4	0.19294284117267	0	1	NaN	56	1	56	2	120	220	320	NaN	520	0.598205269314349	1	1	NaN	4911551.0441028	NaN	4911552.0275755	4911552.54403323
58	21	1	0	90	36.1581920903955	36.241610738255	13	0.433362436443567	2	3	4	NaN	1	4	0.19294284117267	0	1	NaN	57	1	57	2	120	220	320	NaN	520	0.305926169268787	2	0	NaN	4911553.944374	NaN	4911554.9277712	4911555.44432133
58	21	1	0	90	36.1581920903955	36.241610738255	0	0	1	12	3	NaN	2	3	0.19294284117267	0	1	NaN	58	1	58	2	110	210	310	NaN	510	0.433158816769719	1	0	NaN	4911556.5611645	NaN	4911557.5447037	4911558.06124218
58	21	1	0	90	36.1581920903955	36.241610738255	13	0.433362436443567	2	4	1	NaN	1	4	0.19294284117267	0	1	NaN	59	1	59	2	120	220	320	NaN	520	0.330752921290696	1	1	NaN	4911559.3116646	NaN	4911560.2949814	4911560.81151698
58	21	1	0	90	36.1581920903955	36.241610738255	19	0.633375868648291	2	5	1	NaN	1	5	0.19294284117267	0	1	NaN	60	1	60	2	120	220	320	NaN	520	0.352228721603751	1	1	NaN	4911561.9618294	NaN	4911562.9452186	4911563.46176958
58	21	1	0	90	36.1581920903955	36.241610738255	20	0.666711440682411	2	5	1	NaN	1	5	0.19294284117267	0	1	NaN	61	1	61	2	120	220	320	NaN	520	0.0103950221091509	2	0	NaN	4911564.6286162	NaN	4911565.6121622	4911566.12870228
58	21	1	0	90	36.1581920903955	36.241610738255	19	0.633375868648291	2	2	6	NaN	1	4	0.19294284117267	0	1	NaN	62	1	62	2	120	220	320	NaN	520	0.255907421931624	2	0	NaN	4911566.9623102	NaN	4911567.9457409	4911568.46227178
58	21	1	0	90	36.1581920903955	36.241610738255	18	0.60004029661417	2	12	1	NaN	2	5	0.19294284117267	0	1	NaN	63	1	63	2	120	220	320	NaN	520	0.52126466948539	2	1	NaN	4911569.529248	NaN	4911570.5126373	4911571.02918333
58	21	1	0	90	36.1581920903955	36.241610738255	25	0.833389300853014	2	3	2	NaN	1	5	0.19294284117267	0	1	NaN	64	2	1	2	120	220	320	NaN	520	0.332378316670656	2	0	NaN	4911616.5337255	NaN	4911617.5172603	4911618.03380048
58	21	1	0	90	36.1581920903955	36.241610738255	23	0.766718156784773	2	3	2	NaN	1	3	0.19294284117267	0	1	NaN	65	2	2	2	120	220	320	NaN	520	0.130112169310451	2	0	NaN	4911619.1839873	NaN	4911620.1675843	4911620.68406323
58	21	1	0	90	36.1581920903955	36.241610738255	23	0.766718156784773	2	10	6	NaN	2	4	0.19294284117267	0	1	NaN	66	2	3	2	120	220	320	NaN	520	0.19246712140739	2	1	NaN	4911622.2177362	NaN	4911623.2011371	4911623.71769308
58	21	1	0	90	36.1581920903955	36.241610738255	8	0.266684576272964	2	12	2	NaN	2	5	0.19294284117267	0	1	NaN	67	2	4	2	120	220	320	NaN	520	0.212291221134365	2	1	NaN	4911624.7179801	NaN	4911625.7013861	4911626.21794498
58	21	1	0	90	36.1581920903955	36.241610738255	25	0.833389300853014	2	1	1	NaN	1	5	0.19294284117267	0	1	NaN	68	2	5	2	120	220	320	NaN	520	0.230650769546628	1	1	NaN	4911627.2515758	NaN	4911628.2349755	4911628.75152933
58	21	1	0	90	36.1581920903955	36.241610738255	15	0.500033580511808	2	8	4	NaN	2	4	0.19294284117267	0	1	NaN	69	2	6	2	120	220	320	NaN	520	0.0104239787906408	2	1	NaN	4911629.8018267	NaN	4911630.7852211	4911631.30177922
58	21	1	0	90	36.1581920903955	36.241610738255	0	0	1	8	6	NaN	2	5	0.19294284117267	0	1	NaN	70	2	7	2	110	210	310	NaN	510	0.243712169118226	2	1	NaN	4911632.1187874	NaN	4911633.1021193	4911633.61867453
58	21	1	0	90	36.1581920903955	36.241610738255	23	0.766718156784773	2	1	1	NaN	1	3	0.19294284117267	0	1	NaN	71	2	8	2	120	220	320	NaN	520	0.388754721730947	2	0	NaN	4911634.6855691	NaN	4911635.6690266	4911636.18559138
58	21	1	0	90	36.1581920903955	36.241610738255	22	0.733382584750652	2	10	3	NaN	2	4	0.19294284117267	0	1	NaN	72	2	9	2	120	220	320	NaN	520	0.128488821908832	2	1	NaN	4911637.3857884	NaN	4911638.3692891	4911638.88585758
58	21	1	0	90	36.1581920903955	36.241610738255	17	0.56670472458005	2	4	6	NaN	1	5	0.19294284117267	0	1	NaN	73	2	10	2	120	220	320	NaN	520	0.550680721178651	1	1	NaN	4911639.8194613	NaN	4911640.8028748	4911641.31942248
58	21	1	0	90	36.1581920903955	36.241610738255	21	0.700047012716532	2	1	3	NaN	1	3	0.19294284117267	0	1	NaN	74	2	11	2	120	220	320	NaN	520	0.275965422391891	1	1	NaN	4911642.6864232	NaN	4911643.6698264	4911644.18637368
58	21	1	0	90	36.1581920903955	36.241610738255	17	0.56670472458005	2	5	1	NaN	1	4	0.19294284117267	0	1	NaN	75	2	12	2	120	220	320	NaN	520	2.90865902137011	1	1	NaN	4911645.269886	NaN	4911646.2534544	4911646.76996828
58	21	1	0	90	36.1581920903955	36.241610738255	19	0.633375868648291	2	7	2	NaN	2	3	0.19294284117267	0	1	NaN	76	2	13	2	120	220	320	NaN	520	0.299073421396315	1	0	NaN	4911650.487085	NaN	4911651.4706074	4911651.98714798
58	21	1	0	90	36.1581920903955	36.241610738255	6	0.200013432204723	2	7	2	NaN	2	4	0.19294284117267	0	1	NaN	77	2	14	2	120	220	320	NaN	520	0.210264469496906	2	1	NaN	4911653.1041117	NaN	4911654.0874995	4911654.60406343
58	21	1	0	90	36.1581920903955	36.241610738255	7	0.233349004238844	2	7	1	NaN	2	5	0.19294284117267	0	1	NaN	78	2	15	2	120	220	320	NaN	520	0.229425420984626	2	1	NaN	4911655.6210241	NaN	4911656.6044319	4911657.12097648
58	21	1	0	90	36.1581920903955	36.241610738255	6	0.200013432204723	2	1	6	NaN	1	4	0.19294284117267	0	1	NaN	79	2	16	2	120	220	320	NaN	520	0.223413521423936	2	0	NaN	4911658.3712765	NaN	4911659.3545799	4911659.87125068
58	21	1	0	90	36.1581920903955	36.241610738255	14	0.466698008477688	2	4	2	NaN	1	3	0.19294284117267	0	1	NaN	80	2	17	2	120	220	320	NaN	520	0.345338442362845	2	0	NaN	4911660.9048801	NaN	4911661.8882885	4911662.40482976
58	21	1	0	90	36.1581920903955	36.241610738255	17	0.56670472458005	2	12	6	NaN	2	3	0.19294284117267	0	1	NaN	81	2	18	2	120	220	320	NaN	520	0.243994020856917	2	1	NaN	4911663.6383879	NaN	4911664.6218653	4911665.13843348
58	21	1	0	90	36.1581920903955	36.241610738255	10	0.333355720341206	2	10	1	NaN	2	3	0.19294284117267	0	1	NaN	82	2	19	2	120	220	320	NaN	520	0.140956821851432	1	0	NaN	4911666.2054045	NaN	4911667.1888397	4911667.70535468
58	21	1	0	90	36.1581920903955	36.241610738255	19	0.633375868648291	2	3	5	NaN	1	3	0.19294284117267	0	1	NaN	83	2	20	2	120	220	320	NaN	520	0.211019269190729	1	1	NaN	4911668.655646	NaN	4911669.6390336	4911670.15558833
58	21	1	0	90	36.1581920903955	36.241610738255	13	0.433362436443567	2	7	4	NaN	2	5	0.19294284117267	0	1	NaN	84	2	21	2	120	220	320	NaN	520	0.941700521856546	2	1	NaN	4911671.1725453	NaN	4911672.1559192	4911672.67250738
58	21	1	0	90	36.1581920903955	36.241610738255	18	0.60004029661417	2	9	2	NaN	2	3	0.19294284117267	0	1	NaN	85	2	22	2	120	220	320	NaN	520	0.143832821398973	2	1	NaN	4911674.5228608	NaN	4911675.5062861	4911676.02283398
58	21	1	0	90	36.1581920903955	36.241610738255	18	0.60004029661417	2	10	2	NaN	2	3	0.19294284117267	0	1	NaN	86	2	23	2	120	220	320	NaN	520	0.229266669601202	2	1	NaN	4911676.9731257	NaN	4911677.9565097	4911678.47308083
58	21	1	0	90	36.1581920903955	36.241610738255	8	0.266684576272964	2	4	5	NaN	1	3	0.19294284117267	0	1	NaN	87	2	24	2	120	220	320	NaN	520	0.5990319699049	2	0	NaN	4911679.5233687	NaN	4911680.5067859	4911681.02332543
58	21	1	0	90	36.1581920903955	36.241610738255	23	0.766718156784773	2	11	4	NaN	2	4	0.19294284117267	0	1	NaN	88	2	25	2	120	220	320	NaN	520	0.306032168678939	2	1	NaN	4911682.4403679	NaN	4911683.4237361	4911683.94028553
58	21	1	0	90	36.1581920903955	36.241610738255	15	0.500033580511808	2	10	1	NaN	2	5	0.19294284117267	0	1	NaN	89	2	26	2	120	220	320	NaN	520	0.601227222010493	2	1	NaN	4911685.0571397	NaN	4911686.0406507	4911686.55720558
58	21	1	0	90	36.1581920903955	36.241610738255	21	0.700047012716532	2	6	1	NaN	1	5	0.19294284117267	0	1	NaN	90	2	27	2	120	220	320	NaN	520	0.748543822206557	1	1	NaN	4911687.9742145	NaN	4911688.9576108	4911689.47416858
58	21	1	0	90	36.1581920903955	36.241610738255	8	0.266684576272964	2	6	4	NaN	1	5	0.19294284117267	0	1	NaN	91	2	28	2	120	220	320	NaN	520	0.631742769852281	1	1	NaN	4911691.4745292	NaN	4911692.4579289	4911692.97450053
58	21	1	0	90	36.1581920903955	36.241610738255	14	0.466698008477688	2	6	2	NaN	1	5	0.19294284117267	0	1	NaN	92	2	29	2	120	220	320	NaN	520	0.441822021268308	1	1	NaN	4911694.4248551	NaN	4911695.4082497	4911695.92479548
58	21	1	0	90	36.1581920903955	36.241610738255	17	0.56670472458005	2	4	2	NaN	1	3	0.19294284117267	0	1	NaN	93	2	30	2	120	220	320	NaN	520	0.115355994552374	1	1	NaN	4911697.1751028	NaN	4911698.1585157	4911698.67507431
58	21	1	0	90	36.1581920903955	36.241610738255	18	0.60004029661417	2	9	1	NaN	2	5	0.19294284117267	0	1	NaN	94	2	31	2	120	220	320	NaN	520	0.321880921721458	1	0	NaN	4911699.6086694	NaN	4911700.5920943	4911701.10864048
58	21	1	0	90	36.1581920903955	36.241610738255	15	0.500033580511808	2	11	3	NaN	2	4	0.19294284117267	0	1	NaN	95	2	32	2	120	220	320	NaN	520	0.871963769197464	2	1	NaN	4911702.2422127	NaN	4911703.2256923	4911703.74222553
58	21	1	0	90	36.1581920903955	36.241610738255	0	0	1	11	3	NaN	2	5	0.19294284117267	0	1	NaN	96	2	33	2	110	210	310	NaN	510	0.38463672157377	2	1	NaN	4911705.4259166	NaN	4911706.4093275	4911706.92586568
58	21	1	0	90	36.1581920903955	36.241610738255	9	0.300020148307085	2	8	2	NaN	2	5	0.19294284117267	0	1	NaN	97	2	34	2	120	220	320	NaN	520	0.493016369640827	2	1	NaN	4911708.709561	NaN	4911709.6929659	4911710.20952143
58	21	1	0	90	36.1581920903955	36.241610738255	12	0.400026864409447	2	2	2	NaN	1	4	0.19294284117267	0	1	NaN	98	2	35	2	120	220	320	NaN	520	0.197228721342981	1	1	NaN	4911712.0932058	NaN	4911713.0766338	4911713.59319388
58	21	1	0	90	36.1581920903955	36.241610738255	16	0.533369152545929	2	10	6	NaN	2	3	0.19294284117267	0	1	NaN	99	2	36	2	120	220	320	NaN	520	0.0104268742725253	2	1	NaN	4911715.3101994	NaN	4911716.2936153	4911716.81018443
58	21	1	0	90	36.1581920903955	36.241610738255	12	0.400026864409447	2	10	5	NaN	2	5	0.19294284117267	0	1	NaN	100	2	37	2	120	220	320	NaN	520	0.177068116143346	2	1	NaN	4911717.9937991	NaN	4911718.9772376	4911719.49377108
58	21	1	0	90	36.1581920903955	36.241610738255	23	0.766718156784773	2	9	5	NaN	2	5	0.19294284117267	0	1	NaN	101	2	38	2	120	220	320	NaN	520	0.933386621065438	2	1	NaN	4911720.4774097	NaN	4911721.4608003	4911721.97735348
58	21	1	0	90	36.1581920903955	36.241610738255	6	0.200013432204723	2	8	3	NaN	2	4	0.19294284117267	0	1	NaN	102	2	39	2	120	220	320	NaN	520	0.154670368880033	2	1	NaN	4911723.7277105	NaN	4911724.7111187	4911725.22767243
58	21	1	0	90	36.1581920903955	36.241610738255	7	0.233349004238844	2	11	5	NaN	2	5	0.19294284117267	0	1	NaN	103	2	40	2	120	220	320	NaN	520	0.231802769005299	2	1	NaN	4911726.1945451	NaN	4911727.1780172	4911727.69458723
58	21	1	0	90	36.1581920903955	36.241610738255	8	0.266684576272964	2	7	2	NaN	2	4	0.19294284117267	0	1	NaN	104	2	41	2	120	220	320	NaN	520	0.0976948216557503	2	1	NaN	4911728.7447381	NaN	4911729.7282748	4911730.24483428
58	21	1	0	90	36.1581920903955	36.241610738255	11	0.366691292375326	2	7	6	NaN	2	4	0.19294284117267	0	1	NaN	105	2	42	2	120	220	320	NaN	520	0.112866869196296	2	1	NaN	4911731.1617906	NaN	4911732.1451815	4911732.66172943
58	21	1	0	90	36.1581920903955	36.241610738255	10	0.333355720341206	2	7	6	NaN	2	3	0.19294284117267	0	1	NaN	106	2	43	2	120	220	320	NaN	520	0.247552421875298	2	1	NaN	4911733.5952543	NaN	4911734.5787569	4911735.09530298
58	21	1	0	90	36.1581920903955	36.241610738255	18	0.60004029661417	2	8	4	NaN	2	4	0.19294284117267	0	1	NaN	107	2	44	2	120	220	320	NaN	520	0.01046082098037	2	1	NaN	4911736.162273	NaN	4911737.1456626	4911737.66222348
58	21	1	0	90	36.1581920903955	36.241610738255	19	0.633375868648291	2	10	1	NaN	2	5	0.19294284117267	0	1	NaN	108	2	45	2	120	220	320	NaN	520	2.01892513222992	2	1	NaN	4911738.4958267	NaN	4911739.4792151	4911739.99578597
58	21	1	0	90	36.1581920903955	36.241610738255	6	0.200013432204723	2	7	1	NaN	2	4	0.19294284117267	0	1	NaN	109	2	46	2	120	220	320	NaN	520	0.220919421873987	1	0	NaN	4911742.8294656	NaN	4911743.8129932	4911744.32955138
58	21	1	0	90	36.1581920903955	36.241610738255	18	0.60004029661417	2	6	2	NaN	1	5	0.19294284117267	0	1	NaN	110	2	47	2	120	220	320	NaN	520	0.0312006212770939	1	1	NaN	4911745.3630567	NaN	4911746.3465972	4911746.86313418
58	21	1	0	90	36.1581920903955	36.241610738255	18	0.60004029661417	2	7	4	NaN	2	3	0.19294284117267	0	1	NaN	111	2	48	2	120	220	320	NaN	520	0.457797316834331	1	0	NaN	4911747.6966768	NaN	4911748.6801506	4911749.19669248
58	21	1	0	90	36.1581920903955	36.241610738255	18	0.60004029661417	2	4	5	NaN	1	5	0.19294284117267	0	1	NaN	112	2	49	2	120	220	320	NaN	520	0.370579321868718	1	1	NaN	4911750.4636672	NaN	4911751.4469712	4911751.96363388
58	21	1	0	90	36.1581920903955	36.241610738255	24	0.800053728818893	2	9	6	NaN	2	3	0.19294284117267	0	1	NaN	113	2	50	2	120	220	320	NaN	520	0.228723069652915	2	1	NaN	4911753.2139331	NaN	4911754.1973475	4911754.71390233
58	21	1	0	90	36.1581920903955	36.241610738255	16	0.533369152545929	2	6	1	NaN	1	3	0.19294284117267	0	1	NaN	114	2	51	2	120	220	320	NaN	520	0.0782810216769576	1	1	NaN	4911755.7641935	NaN	4911756.7475763	4911757.26415598
58	21	1	0	90	36.1581920903955	36.241610738255	10	0.333355720341206	2	10	6	NaN	2	3	0.19294284117267	0	1	NaN	115	2	52	2	120	220	320	NaN	520	0.750766821205616	2	1	NaN	4911758.1477113	NaN	4911759.1311663	4911759.64774498
58	21	1	0	90	36.1581920903955	36.241610738255	15	0.500033580511808	2	5	5	NaN	1	3	0.19294284117267	0	1	NaN	116	2	53	2	120	220	320	NaN	520	0.59564246982336	1	1	NaN	4911761.214737	NaN	4911762.1981371	4911762.71468493
58	21	1	0	90	36.1581920903955	36.241610738255	21	0.700047012716532	2	9	2	NaN	2	5	0.19294284117267	0	1	NaN	117	2	54	2	120	220	320	NaN	520	0.422968221828341	1	0	NaN	4911764.1315485	NaN	4911765.1150746	4911765.63164328
58	21	1	0	90	36.1581920903955	36.241610738255	23	0.766718156784773	2	11	2	NaN	2	5	0.19294284117267	0	1	NaN	118	2	55	2	120	220	320	NaN	520	0.481177221983671	1	0	NaN	4911766.8652996	NaN	4911767.8486926	4911768.36524278
58	21	1	0	90	36.1581920903955	36.241610738255	8	0.266684576272964	2	1	6	NaN	1	5	0.19294284117267	0	1	NaN	119	2	56	2	120	220	320	NaN	520	0.600956821814179	1	1	NaN	4911769.66556	NaN	4911770.6489692	4911771.16552278
58	21	1	0	90	36.1581920903955	36.241610738255	13	0.433362436443567	2	8	6	NaN	2	3	0.19294284117267	0	1	NaN	120	2	57	2	120	220	320	NaN	520	0.571934370324016	2	1	NaN	4911772.582506	NaN	4911773.5659224	4911774.08247603
58	21	1	0	90	36.1581920903955	36.241610738255	13	0.433362436443567	2	2	6	NaN	1	3	0.19294284117267	0	1	NaN	121	2	58	2	120	220	320	NaN	520	0.31242492236197	2	0	NaN	4911775.4660082	NaN	4911776.4495342	4911776.96608568
58	21	1	0	90	36.1581920903955	36.241610738255	24	0.800053728818893	2	8	3	NaN	2	5	0.19294284117267	0	1	NaN	122	2	59	2	120	220	320	NaN	520	0.0104197692126036	2	1	NaN	4911778.0997161	NaN	4911779.0831293	4911779.59967523
58	21	1	0	90	36.1581920903955	36.241610738255	14	0.466698008477688	2	2	3	NaN	1	3	0.19294284117267	0	1	NaN	123	2	60	2	120	220	320	NaN	520	0.225446269847453	1	1	NaN	4911780.4332717	NaN	4911781.4166895	4911781.93323973
58	21	1	0	90	36.1581920903955	36.241610738255	21	0.700047012716532	2	10	6	NaN	2	5	0.19294284117267	0	1	NaN	124	2	61	2	120	220	320	NaN	520	0.403596170246601	2	1	NaN	4911782.9668679	NaN	4911783.9502605	4911784.46682923
58	21	1	0	90	36.1581920903955	36.241610738255	6	0.200013432204723	2	4	4	NaN	1	5	0.19294284117267	0	1	NaN	125	2	62	2	120	220	320	NaN	520	0.0104121696203947	2	0	NaN	4911785.6837229	NaN	4911786.6672087	4911787.18375363
58	21	1	0	90	36.1581920903955	36.241610738255	24	0.800053728818893	2	2	1	NaN	1	4	0.19294284117267	0	1	NaN	126	2	63	2	120	220	320	NaN	520	0.103343822062016	1	1	NaN	4911788.6674572	NaN	4911789.6508236	4911790.16738138
58	21	1	0	90	36.1581920903955	36.241610738255	25	0.833389300853014	2	7	6	NaN	2	3	0.19294284117267	0	1	NaN	127	3	1	2	120	220	320	NaN	520	0.568444321863353	2	1	NaN	4911848.2899338	NaN	4911849.2733437	4911849.78991438
58	21	1	0	90	36.1581920903955	36.241610738255	15	0.500033580511808	2	9	6	NaN	2	4	0.19294284117267	0	1	NaN	128	3	2	2	120	220	320	NaN	520	0.0103967217728496	2	1	NaN	4911851.1735773	NaN	4911852.1569901	4911852.67353158
58	21	1	0	90	36.1581920903955	36.241610738255	9	0.300020148307085	2	6	2	NaN	1	5	0.19294284117267	0	1	NaN	129	3	3	2	120	220	320	NaN	520	0.0104069216176867	1	1	NaN	4911853.4904488	NaN	4911854.4738127	4911854.99042428
58	21	1	0	90	36.1581920903955	36.241610738255	15	0.500033580511808	2	2	5	NaN	1	5	0.19294284117267	0	1	NaN	130	3	4	2	120	220	320	NaN	520	0.0633170213550329	2	0	NaN	4911856.3073872	NaN	4911857.2908445	4911857.80737098
58	21	1	0	90	36.1581920903955	36.241610738255	25	0.833389300853014	2	8	6	NaN	2	5	0.19294284117267	0	1	NaN	131	3	5	2	120	220	320	NaN	520	0.151633421890438	2	1	NaN	4911858.6909894	NaN	4911859.6743864	4911860.19093688
58	21	1	0	90	36.1581920903955	36.241610738255	9	0.300020148307085	2	5	3	NaN	1	3	0.19294284117267	0	1	NaN	132	3	6	2	120	220	320	NaN	520	0.612626969814301	2	0	NaN	4911861.1579079	NaN	4911862.1413015	4911862.65784193
58	21	1	0	90	36.1581920903955	36.241610738255	11	0.366691292375326	2	4	3	NaN	1	5	0.19294284117267	0	1	NaN	133	3	7	2	120	220	320	NaN	520	0.287418722175062	2	0	NaN	4911864.0915003	NaN	4911865.0749101	4911865.59146728
58	21	1	0	90	36.1581920903955	36.241610738255	20	0.666711440682411	2	2	4	NaN	1	4	0.19294284117267	0	1	NaN	134	3	8	2	120	220	320	NaN	520	0.142755321227014	2	0	NaN	4911866.6917697	NaN	4911867.6751637	4911868.19171208
58	21	1	0	90	36.1581920903955	36.241610738255	16	0.533369152545929	2	2	5	NaN	1	3	0.19294284117267	0	1	NaN	135	3	9	2	120	220	320	NaN	520	0.0286691216751933	2	0	NaN	4911869.1418822	NaN	4911870.1254088	4911870.64196298
58	21	1	0	90	36.1581920903955	36.241610738255	25	0.833389300853014	2	4	6	NaN	1	4	0.19294284117267	0	1	NaN	136	3	10	2	120	220	320	NaN	520	0.622274969704449	1	1	NaN	4911871.4922393	NaN	4911872.4756749	4911872.99218543
58	21	1	0	90	36.1581920903955	36.241610738255	25	0.833389300853014	2	5	3	NaN	1	5	0.19294284117267	0	1	NaN	137	3	11	2	120	220	320	NaN	520	0.233328370377421	1	1	NaN	4911874.8092063	NaN	4911875.7926324	4911876.30918633
58	21	1	0	90	36.1581920903955	36.241610738255	16	0.533369152545929	2	7	4	NaN	2	3	0.19294284117267	0	1	NaN	138	3	12	2	120	220	320	NaN	520	0.201477374881506	1	0	NaN	4911877.8095067	NaN	4911878.7929409	4911879.30947642
58	21	1	0	90	36.1581920903955	36.241610738255	9	0.300020148307085	2	9	4	NaN	2	4	0.19294284117267	0	1	NaN	139	3	13	2	120	220	320	NaN	520	0.484280169010162	2	1	NaN	4911880.3264444	NaN	4911881.3098243	4911881.82638713
58	21	1	0	90	36.1581920903955	36.241610738255	17	0.56670472458005	2	12	3	NaN	2	4	0.19294284117267	0	1	NaN	140	3	14	2	120	220	320	NaN	520	0.187240022234619	2	1	NaN	4911883.3434678	NaN	4911884.326805	4911884.84335728
58	21	1	0	90	36.1581920903955	36.241610738255	18	0.60004029661417	2	1	6	NaN	1	5	0.19294284117267	0	1	NaN	141	3	15	2	120	220	320	NaN	520	0.207336021587253	2	0	NaN	4911885.8436531	NaN	4911886.8270499	4911887.34359908
58	21	1	0	90	36.1581920903955	36.241610738255	12	0.400026864409447	2	10	4	NaN	2	4	0.19294284117267	0	1	NaN	142	3	16	2	120	220	320	NaN	520	0.146075269207358	2	1	NaN	4911888.3605883	NaN	4911889.3439179	4911889.86050663
58	21	1	0	90	36.1581920903955	36.241610738255	0	0	1	9	5	NaN	2	4	0.19294284117267	0	1	NaN	143	3	17	2	110	210	310	NaN	510	0.19970962125808	2	1	NaN	4911890.8108129	NaN	4911891.7942064	4911892.31075058
58	21	1	0	90	36.1581920903955	36.241610738255	16	0.533369152545929	2	3	1	NaN	1	3	0.19294284117267	0	1	NaN	144	3	18	2	120	220	320	NaN	520	3.8900181222707	2	0	NaN	4911893.7611005	NaN	4911894.7444875	4911895.26104018
58	21	1	0	90	36.1581920903955	36.241610738255	22	0.733382584750652	2	8	5	NaN	2	3	0.19294284117267	0	1	NaN	145	3	19	2	120	220	320	NaN	520	0.0103902220726013	2	1	NaN	4911899.9617067	NaN	4911900.9451078	4911901.46165618
58	21	1	0	90	36.1581920903955	36.241610738255	20	0.666711440682411	2	9	3	NaN	2	5	0.19294284117267	0	1	NaN	146	3	20	2	120	220	320	NaN	520	0.236172426491976	2	1	NaN	4911902.2785748	NaN	4911903.2619923	4911903.77855327
58	21	1	0	90	36.1581920903955	36.241610738255	7	0.233349004238844	2	9	3	NaN	2	3	0.19294284117267	0	1	NaN	147	3	21	2	120	220	320	NaN	520	0.518041322007775	2	1	NaN	4911904.8288517	NaN	4911905.8122547	4911906.32879888
58	21	1	0	90	36.1581920903955	36.241610738255	22	0.733382584750652	2	10	5	NaN	2	4	0.19294284117267	0	1	NaN	148	3	22	2	120	220	320	NaN	520	0.397550421766937	2	1	NaN	4911907.8291032	NaN	4911908.8125399	4911909.32908908
58	21	1	0	90	36.1581920903955	36.241610738255	20	0.666711440682411	2	4	6	NaN	1	4	0.19294284117267	0	1	NaN	149	3	23	2	120	220	320	NaN	520	0.384544369764626	1	1	NaN	4911910.546061	NaN	4911911.5294767	4911912.04602823
58	21	1	0	90	36.1581920903955	36.241610738255	16	0.533369152545929	2	1	6	NaN	1	3	0.19294284117267	0	1	NaN	150	3	24	2	120	220	320	NaN	520	0.550868822261691	1	1	NaN	4911913.5796836	NaN	4911914.5630974	4911915.07965088
58	21	1	0	90	36.1581920903955	36.241610738255	13	0.433362436443567	2	5	3	NaN	1	4	0.19294284117267	0	1	NaN	151	3	25	2	120	220	320	NaN	520	0.0104135693982244	1	1	NaN	4911916.7800372	NaN	4911917.7634266	4911918.27997343
58	21	1	0	90	36.1581920903955	36.241610738255	25	0.833389300853014	2	11	3	NaN	2	3	0.19294284117267	0	1	NaN	152	3	26	2	120	220	320	NaN	520	0.201698768883944	1	0	NaN	4911919.096904	NaN	4911920.0803087	4911920.59686503
58	21	1	0	90	36.1581920903955	36.241610738255	17	0.56670472458005	2	3	4	NaN	1	4	0.19294284117267	0	1	NaN	153	3	27	2	120	220	320	NaN	520	0.236825264059007	1	1	NaN	4911921.6138359	NaN	4911922.597231	4911923.11377604
58	21	1	0	90	36.1581920903955	36.241610738255	22	0.733382584750652	2	3	6	NaN	1	3	0.19294284117267	0	1	NaN	154	3	28	2	120	220	320	NaN	520	0.662621669471264	1	1	NaN	4911924.1640626	NaN	4911925.1474641	4911925.66402863
58	21	1	0	90	36.1581920903955	36.241610738255	20	0.666711440682411	2	3	4	NaN	1	5	0.19294284117267	0	1	NaN	155	3	29	2	120	220	320	NaN	520	0.479590469039977	1	1	NaN	4911927.1310216	NaN	4911928.1144379	4911928.63098803
58	21	1	0	90	36.1581920903955	36.241610738255	23	0.766718156784773	2	8	6	NaN	2	5	0.19294284117267	0	1	NaN	156	3	30	2	120	220	320	NaN	520	0.399334621615708	1	0	NaN	4911929.9313043	NaN	4911930.9147155	4911931.43126248
58	21	1	0	90	36.1581920903955	36.241610738255	17	0.56670472458005	2	7	4	NaN	2	3	0.19294284117267	0	1	NaN	157	3	31	2	120	220	320	NaN	520	0.122403921559453	1	0	NaN	4911932.6482373	NaN	4911933.6316505	4911934.14819648
58	21	1	0	90	36.1581920903955	36.241610738255	19	0.633375868648291	2	9	6	NaN	2	5	0.19294284117267	0	1	NaN	158	3	32	2	120	220	320	NaN	520	0.241211521439254	2	1	NaN	4911935.08182	NaN	4911936.0651137	4911936.58176448
58	21	1	0	90	36.1581920903955	36.241610738255	22	0.733382584750652	2	9	2	NaN	2	5	0.19294284117267	0	1	NaN	159	3	33	2	120	220	320	NaN	520	0.147055169567466	2	1	NaN	4911937.6321056	NaN	4911938.6154731	4911939.13201853
58	21	1	0	90	36.1581920903955	36.241610738255	9	0.300020148307085	2	4	6	NaN	1	4	0.19294284117267	0	1	NaN	160	3	34	2	120	220	320	NaN	520	0.207908215932548	1	1	NaN	4911940.0990761	NaN	4911941.0823672	4911941.59892488
58	21	1	0	90	36.1581920903955	36.241610738255	19	0.633375868648291	2	6	6	NaN	1	5	0.19294284117267	0	1	NaN	161	3	35	2	120	220	320	NaN	520	0.306545064784586	1	1	NaN	4911942.6325591	NaN	4911943.6159636	4911944.13250944
58	21	1	0	90	36.1581920903955	36.241610738255	7	0.233349004238844	2	10	5	NaN	2	4	0.19294284117267	0	1	NaN	162	3	36	2	120	220	320	NaN	520	0.0893389750272036	1	0	NaN	4911945.2495053	NaN	4911946.2328807	4911946.74944173
58	21	1	0	90	36.1581920903955	36.241610738255	14	0.466698008477688	2	4	6	NaN	1	3	0.19294284117267	0	1	NaN	163	3	37	2	120	220	320	NaN	520	0.0968977697193623	1	1	NaN	4911947.649591	NaN	4911948.6331205	4911949.14967473
58	21	1	0	90	36.1581920903955	36.241610738255	24	0.800053728818893	2	7	2	NaN	2	5	0.19294284117267	0	1	NaN	164	3	38	2	120	220	320	NaN	520	0.0104111693799496	2	1	NaN	4911950.0498257	NaN	4911951.0333509	4911951.54991313
58	21	1	0	90	36.1581920903955	36.241610738255	8	0.266684576272964	2	2	1	NaN	1	3	0.19294284117267	0	1	NaN	165	3	39	2	120	220	320	NaN	520	0.146979821845889	2	0	NaN	4911952.3835054	NaN	4911953.3669292	4911953.88349068
58	21	1	0	90	36.1581920903955	36.241610738255	14	0.466698008477688	2	9	3	NaN	2	3	0.19294284117267	0	1	NaN	166	3	40	2	120	220	320	NaN	520	0.536329769529402	2	1	NaN	4911954.8504358	NaN	4911955.8338468	4911956.35037823
58	21	1	0	90	36.1581920903955	36.241610738255	18	0.60004029661417	2	3	1	NaN	1	5	0.19294284117267	0	1	NaN	167	3	41	2	120	220	320	NaN	520	0.222133921459317	2	0	NaN	4911957.7007216	NaN	4911958.6841125	4911959.20066348
58	21	1	0	90	36.1581920903955	36.241610738255	18	0.60004029661417	2	3	5	NaN	1	4	0.19294284117267	0	1	NaN	168	3	42	2	120	220	320	NaN	520	0.0104052219539881	1	1	NaN	4911960.2343047	NaN	4911961.2176975	4911961.73423778
58	21	1	0	90	36.1581920903955	36.241610738255	14	0.466698008477688	2	9	3	NaN	2	5	0.19294284117267	0	1	NaN	169	3	43	2	120	220	320	NaN	520	0.0104101691395044	2	1	NaN	4911963.1178873	NaN	4911964.101315	4911964.61785433
58	21	1	0	90	36.1581920903955	36.241610738255	7	0.233349004238844	2	8	4	NaN	2	5	0.19294284117267	0	1	NaN	170	3	44	2	120	220	320	NaN	520	0.39931402169168	2	1	NaN	4911965.4514804	NaN	4911966.4348631	4911966.95142078
58	21	1	0	90	36.1581920903955	36.241610738255	12	0.400026864409447	2	5	1	NaN	1	4	0.19294284117267	0	1	NaN	171	3	45	2	120	220	320	NaN	520	0.194428169168532	2	0	NaN	4911968.1684105	NaN	4911969.1518615	4911969.66834843
58	21	1	0	90	36.1581920903955	36.241610738255	24	0.800053728818893	2	2	3	NaN	1	4	0.19294284117267	0	1	NaN	172	3	46	2	120	220	320	NaN	520	0.0860573211684823	2	0	NaN	4911970.6686484	NaN	4911971.6520484	4911972.16860648
58	21	1	0	90	36.1581920903955	36.241610738255	18	0.60004029661417	2	5	5	NaN	1	5	0.19294284117267	0	1	NaN	173	3	47	2	120	220	320	NaN	520	0.238041269592941	1	1	NaN	4911973.0689019	NaN	4911974.0522902	4911974.56882953
58	21	1	0	90	36.1581920903955	36.241610738255	7	0.233349004238844	2	8	4	NaN	2	3	0.19294284117267	0	1	NaN	174	3	48	2	120	220	320	NaN	520	0.303597469814122	2	1	NaN	4911975.619125	NaN	4911976.6025593	4911977.11909053
58	21	1	0	90	36.1581920903955	36.241610738255	21	0.700047012716532	2	11	2	NaN	2	4	0.19294284117267	0	1	NaN	175	3	49	2	120	220	320	NaN	520	0.239056670106947	2	1	NaN	4911978.2359368	NaN	4911979.21946	4911979.73600783
58	21	1	0	90	36.1581920903955	36.241610738255	15	0.500033580511808	2	12	4	NaN	2	5	0.19294284117267	0	1	NaN	176	3	50	2	120	220	320	NaN	520	0.528846421279013	1	0	NaN	4911980.7863085	NaN	4911981.7697158	4911982.28625898
58	21	1	0	90	36.1581920903955	36.241610738255	12	0.400026864409447	2	11	1	NaN	2	3	0.19294284117267	0	1	NaN	177	3	51	2	120	220	320	NaN	520	0.199145969934762	2	1	NaN	4911983.6199341	NaN	4911984.6033273	4911985.11987803
58	21	1	0	90	36.1581920903955	36.241610738255	17	0.56670472458005	2	5	5	NaN	1	5	0.19294284117267	0	1	NaN	178	3	52	2	120	220	320	NaN	520	0.154093821533024	1	1	NaN	4911986.1367737	NaN	4911987.1202544	4911987.63678338
58	21	1	0	90	36.1581920903955	36.241610738255	17	0.56670472458005	2	6	5	NaN	1	5	0.19294284117267	0	1	NaN	179	3	53	2	120	220	320	NaN	520	0.263357921503484	1	1	NaN	4911988.6037315	NaN	4911989.5871495	4911990.10369368
58	21	1	0	90	36.1581920903955	36.241610738255	8	0.266684576272964	2	4	4	NaN	1	4	0.19294284117267	0	1	NaN	180	3	54	2	120	220	320	NaN	520	0.352334475144744	1	1	NaN	4911991.1705696	NaN	4911992.1540658	4911992.67062243
58	21	1	0	90	36.1581920903955	36.241610738255	15	0.500033580511808	2	7	1	NaN	2	4	0.19294284117267	0	1	NaN	181	3	55	2	120	220	320	NaN	520	0.31706446968019	1	0	NaN	4911993.837469	NaN	4911994.8210011	4911995.33754493
58	21	1	0	90	36.1581920903955	36.241610738255	10	0.333355720341206	2	8	2	NaN	2	4	0.19294284117267	0	1	NaN	182	3	56	2	120	220	320	NaN	520	0.851094874553382	1	0	NaN	4911996.8878676	NaN	4911997.8712834	4911998.38784913
58	21	1	0	90	36.1581920903955	36.241610738255	9	0.300020148307085	2	9	1	NaN	2	4	0.19294284117267	0	1	NaN	183	3	57	2	120	220	320	NaN	520	0.852235594764352	2	1	NaN	4912000.054868	NaN	4912001.0382731	4912001.55483351
58	21	1	0	90	36.1581920903955	36.241610738255	13	0.433362436443567	2	12	2	NaN	2	3	0.19294284117267	0	1	NaN	184	3	58	2	120	220	320	NaN	520	0.613320869393647	1	0	NaN	4912003.2218627	NaN	4912004.2052577	4912004.72180483
58	21	1	0	90	36.1581920903955	36.241610738255	21	0.700047012716532	2	8	1	NaN	2	3	0.19294284117267	0	1	NaN	185	3	59	2	120	220	320	NaN	520	0.263641120865941	1	0	NaN	4912006.1554746	NaN	4912007.1387836	4912007.65541958
58	21	1	0	90	36.1581920903955	36.241610738255	16	0.533369152545929	2	5	1	NaN	1	3	0.19294284117267	0	1	NaN	186	3	60	2	120	220	320	NaN	520	0.679660521447659	2	0	NaN	4912008.7391461	NaN	4912009.7224927	4912010.23900128
58	21	1	0	90	36.1581920903955	36.241610738255	16	0.533369152545929	2	9	1	NaN	2	4	0.19294284117267	0	1	NaN	187	3	61	2	120	220	320	NaN	520	0.247848516330123	2	1	NaN	4912011.7393464	NaN	4912012.7227497	4912013.23930108
58	21	1	0	90	36.1581920903955	36.241610738255	18	0.60004029661417	2	4	2	NaN	1	5	0.19294284117267	0	1	NaN	188	3	62	2	120	220	320	NaN	520	0.136655570007861	1	1	NaN	4912014.3062557	NaN	4912015.2896722	4912015.80621663
58	21	1	0	90	36.1581920903955	36.241610738255	11	0.366691292375326	2	2	6	NaN	1	5	0.19294284117267	0	1	NaN	189	3	63	2	120	220	320	NaN	520	0.310711121186614	1	1	NaN	4912016.7564655	NaN	4912017.7399186	4912018.25646098
58	21	1	0	90	36.1581920903955	36.241610738255	21	0.700047012716532	2	11	6	NaN	2	4	0.19294284117267	0	1	NaN	190	4	1	2	120	220	320	NaN	520	0.626745521090925	2	1	NaN	4912070.5284616	NaN	4912071.5118471	4912072.02840988
58	21	1	0	90	36.1581920903955	36.241610738255	12	0.400026864409447	2	8	5	NaN	2	4	0.19294284117267	0	1	NaN	191	4	2	2	120	220	320	NaN	520	0.556992721743882	2	1	NaN	4912073.4620758	NaN	4912074.4454688	4912074.96203568
58	21	1	0	90	36.1581920903955	36.241610738255	15	0.500033580511808	2	1	5	NaN	1	3	0.19294284117267	0	1	NaN	192	4	3	2	120	220	320	NaN	520	0.193876889534295	2	0	NaN	4912076.3290444	NaN	4912077.3123752	4912077.82898981
58	21	1	0	90	36.1581920903955	36.241610738255	22	0.733382584750652	2	3	1	NaN	1	5	0.19294284117267	0	1	NaN	193	4	4	2	120	220	320	NaN	520	0.137672269716859	2	0	NaN	4912079.9293672	NaN	4912080.9127818	4912081.42933573
58	21	1	0	90	36.1581920903955	36.241610738255	20	0.666711440682411	2	5	3	NaN	1	4	0.19294284117267	0	1	NaN	194	4	5	2	120	220	320	NaN	520	0.392561169341207	2	0	NaN	4912082.5461881	NaN	4912083.5297087	4912084.04625873
58	21	1	0	90	36.1581920903955	36.241610738255	18	0.60004029661417	2	8	5	NaN	2	4	0.19294284117267	0	1	NaN	195	4	6	2	120	220	320	NaN	520	1.28296586871147	2	1	NaN	4912085.6799246	NaN	4912086.6633539	4912087.17989353
58	21	1	0	90	36.1581920903955	36.241610738255	17	0.56670472458005	2	9	2	NaN	2	5	0.19294284117267	0	1	NaN	196	4	7	2	120	220	320	NaN	520	0.210576869547367	2	1	NaN	4912089.2803131	NaN	4912090.2636979	4912090.78025473
58	21	1	0	90	36.1581920903955	36.241610738255	15	0.500033580511808	2	12	4	NaN	2	5	0.19294284117267	0	1	NaN	197	4	8	2	120	220	320	NaN	520	0.309690169990063	2	1	NaN	4912091.7972168	NaN	4912092.7806787	4912093.29716653
58	21	1	0	90	36.1581920903955	36.241610738255	22	0.733382584750652	2	5	1	NaN	1	3	0.19294284117267	0	1	NaN	198	4	9	2	120	220	320	NaN	520	0.451753121800721	1	1	NaN	4912094.8473931	NaN	4912095.8309182	4912096.34746508
58	21	1	0	90	36.1581920903955	36.241610738255	15	0.500033580511808	2	9	5	NaN	2	4	0.19294284117267	0	1	NaN	199	4	10	2	120	220	320	NaN	520	0.828847968950868	2	1	NaN	4912097.6144905	NaN	4912098.5978527	4912099.11440573
58	21	1	0	90	36.1581920903955	36.241610738255	0	0	1	10	4	NaN	2	3	0.19294284117267	0	1	NaN	200	4	11	2	110	210	310	NaN	510	0.254102469421923	2	1	NaN	4912101.1648019	NaN	4912102.1481882	4912102.66475073
58	21	1	0	90	36.1581920903955	36.241610738255	0	0	1	4	5	NaN	1	3	0.19294284117267	0	1	NaN	201	4	12	2	110	210	310	NaN	510	0.519383321516216	2	0	NaN	4912103.7315799	NaN	4912104.7151208	4912105.23167628
58	21	1	0	90	36.1581920903955	36.241610738255	12	0.400026864409447	2	7	6	NaN	2	4	0.19294284117267	0	1	NaN	202	4	13	2	120	220	320	NaN	520	2.74198654294014	2	1	NaN	4912106.5653435	NaN	4912107.5487366	4912108.06528526
58	21	1	0	90	36.1581920903955	36.241610738255	9	0.300020148307085	2	1	5	NaN	1	5	0.19294284117267	0	1	NaN	203	4	14	2	120	220	320	NaN	520	0.107277722097933	1	1	NaN	4912111.6158229	NaN	4912112.5992264	4912113.11578248
58	21	1	0	90	36.1581920903955	36.241610738255	18	0.60004029661417	2	6	4	NaN	1	4	0.19294284117267	0	1	NaN	204	4	15	2	120	220	320	NaN	520	0.138330321758986	1	1	NaN	4912114.0327393	NaN	4912115.0161385	4912115.53268258
58	21	1	0	90	36.1581920903955	36.241610738255	12	0.400026864409447	2	12	2	NaN	2	3	0.19294284117267	0	1	NaN	205	4	16	2	120	220	320	NaN	520	0.160000069066882	2	1	NaN	4912116.4829698	NaN	4912117.4663711	4912117.98292283
58	21	1	0	90	36.1581920903955	36.241610738255	25	0.833389300853014	2	10	3	NaN	2	3	0.19294284117267	0	1	NaN	206	4	17	2	120	220	320	NaN	520	0.42100577428937	2	1	NaN	4912118.9497533	NaN	4912119.9332868	4912120.44984233
58	21	1	0	90	36.1581920903955	36.241610738255	17	0.56670472458005	2	9	3	NaN	2	5	0.19294284117267	0	1	NaN	207	4	18	2	120	220	320	NaN	520	0.303464469499886	2	1	NaN	4912121.6834877	NaN	4912122.6668886	4912123.18343593
58	21	1	0	90	36.1581920903955	36.241610738255	8	0.266684576272964	2	12	4	NaN	2	4	0.19294284117267	0	1	NaN	208	4	19	2	120	220	320	NaN	520	0.366568669676781	2	1	NaN	4912124.3004073	NaN	4912125.2838138	4912125.80038053
58	21	1	0	90	36.1581920903955	36.241610738255	6	0.200013432204723	2	5	4	NaN	1	3	0.19294284117267	0	1	NaN	209	4	20	2	120	220	320	NaN	520	0.010427069850266	2	0	NaN	4912126.9840032	NaN	4912127.9674131	4912128.48396473
58	21	1	0	90	36.1581920903955	36.241610738255	13	0.433362436443567	2	7	3	NaN	2	4	0.19294284117267	0	1	NaN	210	4	21	2	120	220	320	NaN	520	0.109511221759021	2	1	NaN	4912129.3175602	NaN	4912130.3009714	4912130.81751948
58	21	1	0	90	36.1581920903955	36.241610738255	9	0.300020148307085	2	5	3	NaN	1	4	0.19294284117267	0	1	NaN	211	4	22	2	120	220	320	NaN	520	0.612651321105659	1	1	NaN	4912131.7344046	NaN	4912132.7178717	4912133.23442838
58	21	1	0	90	36.1581920903955	36.241610738255	17	0.56670472458005	2	7	4	NaN	2	5	0.19294284117267	0	1	NaN	212	4	23	2	120	220	320	NaN	520	0.192950221709907	2	1	NaN	4912135.4180329	NaN	4912136.4015537	4912136.91812398
58	21	1	0	90	36.1581920903955	36.241610738255	20	0.666711440682411	2	2	4	NaN	1	3	0.19294284117267	0	1	NaN	213	4	24	2	120	220	320	NaN	520	0.604678010568023	2	0	NaN	4912137.9184039	NaN	4912138.9018149	4912139.41836139
58	21	1	0	90	36.1581920903955	36.241610738255	14	0.466698008477688	2	7	3	NaN	2	5	0.19294284117267	0	1	NaN	214	4	25	2	120	220	320	NaN	520	0.271718015894294	1	0	NaN	4912140.8353408	NaN	4912141.8187714	4912142.33531538
58	21	1	0	90	36.1581920903955	36.241610738255	21	0.700047012716532	2	6	3	NaN	1	5	0.19294284117267	0	1	NaN	215	4	26	2	120	220	320	NaN	520	0.32033082190901	2	0	NaN	4912143.4189593	NaN	4912144.4023485	4912144.91890758
58	21	1	0	90	36.1581920903955	36.241610738255	19	0.633375868648291	2	10	6	NaN	2	5	0.19294284117267	0	1	NaN	216	4	27	2	120	220	320	NaN	520	0.134467216208577	2	1	NaN	4912146.0525307	NaN	4912147.0359493	4912147.55249248
58	21	1	0	90	36.1581920903955	36.241610738255	23	0.766718156784773	2	2	1	NaN	1	5	0.19294284117267	0	1	NaN	217	4	28	2	120	220	320	NaN	520	0.116425322368741	2	0	NaN	4912148.5027922	NaN	4912149.4862609	4912150.00273998
58	21	1	0	90	36.1581920903955	36.241610738255	9	0.300020148307085	2	7	3	NaN	2	3	0.19294284117267	0	1	NaN	218	4	29	2	120	220	320	NaN	520	0.0104202693328261	2	1	NaN	4912150.936226	NaN	4912151.9197664	4912152.43631353
58	21	1	0	90	36.1581920903955	36.241610738255	9	0.300020148307085	2	10	3	NaN	2	5	0.19294284117267	0	1	NaN	219	4	30	2	120	220	320	NaN	520	0.0104286167770624	1	0	NaN	4912153.2697926	NaN	4912154.2533323	4912154.76987828
58	21	1	0	90	36.1581920903955	36.241610738255	8	0.266684576272964	2	8	5	NaN	2	4	0.19294284117267	0	1	NaN	220	4	31	2	120	220	320	NaN	520	0.0855853166431189	1	0	NaN	4912156.0535361	NaN	4912157.0369195	4912157.55348268
58	21	1	0	90	36.1581920903955	36.241610738255	7	0.233349004238844	2	12	6	NaN	2	3	0.19294284117267	0	1	NaN	221	4	32	2	120	220	320	NaN	520	0.157598721794784	1	0	NaN	4912158.4536586	NaN	4912159.4371844	4912159.95372328
58	21	1	0	90	36.1581920903955	36.241610738255	22	0.733382584750652	2	2	5	NaN	1	3	0.19294284117267	0	1	NaN	222	4	33	2	120	220	320	NaN	520	0.127625822089612	1	1	NaN	4912161.3873646	NaN	4912162.3707717	4912162.88733668
58	21	1	0	90	36.1581920903955	36.241610738255	14	0.466698008477688	2	1	2	NaN	1	4	0.19294284117267	0	1	NaN	223	4	34	2	120	220	320	NaN	520	0.240164269693196	2	0	NaN	4912164.3709939	NaN	4912165.354395	4912165.87096363
58	21	1	0	90	36.1581920903955	36.241610738255	19	0.633375868648291	2	8	3	NaN	2	4	0.19294284117267	0	1	NaN	224	4	35	2	120	220	320	NaN	520	0.0104262214154005	2	1	NaN	4912166.9212575	NaN	4912167.9046673	4912168.42121778
58	21	1	0	90	36.1581920903955	36.241610738255	17	0.56670472458005	2	2	3	NaN	1	4	0.19294284117267	0	1	NaN	225	4	36	2	120	220	320	NaN	520	0.380295469425619	2	0	NaN	4912169.2548432	NaN	4912170.2382203	4912170.75477743
58	21	1	0	90	36.1581920903955	36.241610738255	14	0.466698008477688	2	5	2	NaN	1	5	0.19294284117267	0	1	NaN	226	4	37	2	120	220	320	NaN	520	0.343955521471798	2	0	NaN	4912171.9551055	NaN	4912172.9385159	4912173.45504328
58	21	1	0	90	36.1581920903955	36.241610738255	9	0.300020148307085	2	2	4	NaN	1	5	0.19294284117267	0	1	NaN	227	4	38	2	120	220	320	NaN	520	0.324988669715822	2	0	NaN	4912174.6219028	NaN	4912175.6054193	4912176.12197373
58	21	1	0	90	36.1581920903955	36.241610738255	6	0.200013432204723	2	5	2	NaN	1	4	0.19294284117267	0	1	NaN	228	4	39	2	120	220	320	NaN	520	0.211514769122005	2	0	NaN	4912177.2556037	NaN	4912178.2390009	4912178.75555623
58	21	1	0	90	36.1581920903955	36.241610738255	11	0.366691292375326	2	10	4	NaN	2	4	0.19294284117267	0	1	NaN	229	4	40	2	120	220	320	NaN	520	0.637916369363666	2	1	NaN	4912179.7891991	NaN	4912180.7725992	4912181.28913793
58	21	1	0	90	36.1581920903955	36.241610738255	19	0.633375868648291	2	3	3	NaN	1	3	0.19294284117267	0	1	NaN	230	4	41	2	120	220	320	NaN	520	0.91991024184972	1	1	NaN	4912182.7394793	NaN	4912183.7228883	4912184.23944506
58	21	1	0	90	36.1581920903955	36.241610738255	14	0.466698008477688	2	10	5	NaN	2	3	0.19294284117267	0	1	NaN	231	4	42	2	120	220	320	NaN	520	0.129520568996668	2	1	NaN	4912186.4898275	NaN	4912187.4732549	4912187.98980123
58	21	1	0	90	36.1581920903955	36.241610738255	19	0.633375868648291	2	12	2	NaN	2	3	0.19294284117267	0	1	NaN	232	4	43	2	120	220	320	NaN	520	0.262991721741855	2	1	NaN	4912188.9400915	NaN	4912189.9234753	4912190.44004808
58	21	1	0	90	36.1581920903955	36.241610738255	8	0.266684576272964	2	10	2	NaN	2	5	0.19294284117267	0	1	NaN	233	4	44	2	120	220	320	NaN	520	0.263196022249758	2	1	NaN	4912191.5236719	NaN	4912192.5070758	4912193.02363268
58	21	1	0	90	36.1581920903955	36.241610738255	22	0.733382584750652	2	11	2	NaN	2	3	0.19294284117267	0	1	NaN	234	4	45	2	120	220	320	NaN	520	0.235413921996951	2	1	NaN	4912194.4239463	NaN	4912195.407406	4912195.92392068
58	21	1	0	90	36.1581920903955	36.241610738255	22	0.733382584750652	2	4	1	NaN	1	4	0.19294284117267	0	1	NaN	235	4	46	2	120	220	320	NaN	520	0.274066870100796	2	0	NaN	4912197.0408557	NaN	4912198.0242849	4912198.54083883
58	21	1	0	90	36.1581920903955	36.241610738255	24	0.800053728818893	2	6	4	NaN	1	5	0.19294284117267	0	1	NaN	236	4	47	2	120	220	320	NaN	520	0.322514921426773	1	1	NaN	4912199.6244513	NaN	4912200.6078516	4912201.12442828
58	21	1	0	90	36.1581920903955	36.241610738255	9	0.300020148307085	2	8	3	NaN	2	4	0.19294284117267	0	1	NaN	237	4	48	2	120	220	320	NaN	520	0.640901168808341	2	1	NaN	4912202.2579445	NaN	4912203.2414526	4912203.75801533
58	21	1	0	90	36.1581920903955	36.241610738255	11	0.366691292375326	2	6	2	NaN	1	5	0.19294284117267	0	1	NaN	238	4	49	2	120	220	320	NaN	520	0.186110069043934	1	1	NaN	4912205.4249231	NaN	4912206.4084498	4912206.92499733
58	21	1	0	90	36.1581920903955	36.241610738255	9	0.300020148307085	2	3	3	NaN	1	3	0.19294284117267	0	1	NaN	239	4	50	2	120	220	320	NaN	520	0.429223121143878	1	1	NaN	4912208.341993	NaN	4912209.3253951	4912209.84195648
58	21	1	0	90	36.1581920903955	36.241610738255	16	0.533369152545929	2	1	5	NaN	1	3	0.19294284117267	0	1	NaN	240	4	51	2	120	220	320	NaN	520	0.958152516745031	1	1	NaN	4912211.1089436	NaN	4912212.0923374	4912212.60888618
58	21	1	0	90	36.1581920903955	36.241610738255	17	0.56670472458005	2	11	2	NaN	2	3	0.19294284117267	0	1	NaN	241	4	52	2	120	220	320	NaN	520	0.583163636736572	2	1	NaN	4912214.4758127	NaN	4912215.4593323	4912215.97589646
58	21	1	0	90	36.1581920903955	36.241610738255	12	0.400026864409447	2	2	4	NaN	1	5	0.19294284117267	0	1	NaN	242	4	53	2	120	220	320	NaN	520	0.243171669542789	2	0	NaN	4912217.3762105	NaN	4912218.3596198	4912218.87617023
58	21	1	0	90	36.1581920903955	36.241610738255	21	0.700047012716532	2	1	2	NaN	1	5	0.19294284117267	0	1	NaN	243	4	54	2	120	220	320	NaN	520	0.49250821582973	2	0	NaN	4912219.926461	NaN	4912220.9098693	4912221.42641588
58	21	1	0	90	36.1581920903955	36.241610738255	12	0.400026864409447	2	11	6	NaN	2	5	0.19294284117267	0	1	NaN	244	4	55	2	120	220	320	NaN	520	0.356377821415663	2	1	NaN	4912222.7267574	NaN	4912223.7101749	4912224.22670118
58	21	1	0	90	36.1581920903955	36.241610738255	13	0.433362436443567	2	11	1	NaN	2	5	0.19294284117267	0	1	NaN	245	4	56	2	120	220	320	NaN	520	0.561453221365809	1	0	NaN	4912225.3936733	NaN	4912226.3770755	4912226.89363148
58	21	1	0	90	36.1581920903955	36.241610738255	6	0.200013432204723	2	4	2	NaN	1	3	0.19294284117267	0	1	NaN	246	4	57	2	120	220	320	NaN	520	0.0103983217850327	1	1	NaN	4912228.260611	NaN	4912229.2440268	4912229.76057938
58	21	1	0	90	36.1581920903955	36.241610738255	9	0.300020148307085	2	4	1	NaN	1	3	0.19294284117267	0	1	NaN	247	4	58	2	120	220	320	NaN	520	0.193943121470511	2	0	NaN	4912230.5775241	NaN	4912231.560908	4912232.07747188
58	21	1	0	90	36.1581920903955	36.241610738255	20	0.666711440682411	2	10	3	NaN	2	5	0.19294284117267	0	1	NaN	248	4	59	2	120	220	320	NaN	520	0.114229969680309	2	1	NaN	4912233.5611899	NaN	4912234.5445488	4912235.06109563
58	21	1	0	90	36.1581920903955	36.241610738255	21	0.700047012716532	2	2	4	NaN	1	4	0.19294284117267	0	1	NaN	249	4	60	2	120	220	320	NaN	520	0.40885316953063	2	0	NaN	4912235.994715	NaN	4912236.9781411	4912237.49466373
58	21	1	0	90	36.1581920903955	36.241610738255	8	0.266684576272964	2	1	2	NaN	1	3	0.19294284117267	0	1	NaN	250	4	61	2	120	220	320	NaN	520	0.202434821985662	1	1	NaN	4912239.1450533	NaN	4912240.128412	4912240.64497838
58	21	1	0	90	36.1581920903955	36.241610738255	6	0.200013432204723	2	3	3	NaN	1	4	0.19294284117267	0	1	NaN	251	4	62	2	120	220	320	NaN	520	0.530556121841073	1	1	NaN	4912241.9286259	NaN	4912242.9120129	4912243.42857948
58	21	1	0	90	36.1581920903955	36.241610738255	16	0.533369152545929	2	3	6	NaN	1	5	0.19294284117267	0	1	NaN	252	4	63	2	120	220	320	NaN	520	0.143571369349957	2	0	NaN	4912245.1956275	NaN	4912246.1790257	4912246.69556853
58	21	1	0	90	36.1581920903955	36.241610738255	19	0.633375868648291	2	9	4	NaN	2	4	0.19294284117267	0	1	NaN	253	5	1	2	120	220	320	NaN	520	0.76092316955328	2	1	NaN	4912313.0022603	NaN	4912313.9857094	4912314.50223433
58	21	1	0	90	36.1581920903955	36.241610738255	8	0.266684576272964	2	6	3	NaN	1	5	0.19294284117267	0	1	NaN	254	5	2	2	120	220	320	NaN	520	0.0103938216343522	1	1	NaN	4912316.469164	NaN	4912317.4526852	4912317.96923838
58	21	1	0	90	36.1581920903955	36.241610738255	0	0	1	3	5	NaN	1	5	0.19294284117267	0	1	NaN	255	5	3	2	110	210	310	NaN	510	0.0490916222333908	1	1	NaN	4912318.7861798	NaN	4912319.7695859	4912320.28613728
58	21	1	0	90	36.1581920903955	36.241610738255	10	0.333355720341206	2	5	6	NaN	1	5	0.19294284117267	0	1	NaN	256	5	4	2	120	220	320	NaN	520	0.0104090208187699	1	1	NaN	4912321.1530861	NaN	4912322.1364818	4912322.65303038
58	21	1	0	90	36.1581920903955	36.241610738255	7	0.233349004238844	2	6	4	NaN	1	4	0.19294284117267	0	1	NaN	257	5	5	2	120	220	320	NaN	520	0.0103945219889283	1	1	NaN	4912323.4865209	NaN	4912324.4700663	4912324.98660098
58	21	1	0	90	36.1581920903955	36.241610738255	25	0.833389300853014	2	6	1	NaN	1	4	0.19294284117267	0	1	NaN	258	5	6	2	120	220	320	NaN	520	0.215084222145379	1	1	NaN	4912325.8200876	NaN	4912326.803608	4912327.32015438
58	21	1	0	90	36.1581920903955	36.241610738255	22	0.733382584750652	2	7	3	NaN	2	5	0.19294284117267	0	1	NaN	259	5	7	2	120	220	320	NaN	520	0.0895288214087486	2	1	NaN	4912328.3538058	NaN	4912329.3371863	4912329.85373928
58	21	1	0	90	36.1581920903955	36.241610738255	21	0.700047012716532	2	8	5	NaN	2	3	0.19294284117267	0	1	NaN	260	5	8	2	120	220	320	NaN	520	0.107364969328046	2	1	NaN	4912331.3040646	NaN	4912332.2874598	4912332.80402963
58	21	1	0	90	36.1581920903955	36.241610738255	12	0.400026864409447	2	8	6	NaN	2	4	0.19294284117267	0	1	NaN	261	5	9	2	120	220	320	NaN	520	0.0104029215872288	1	0	NaN	4912333.7209835	NaN	4912334.7043876	4912335.22093168
58	21	1	0	90	36.1581920903955	36.241610738255	20	0.666711440682411	2	9	5	NaN	2	3	0.19294284117267	0	1	NaN	262	5	10	2	120	220	320	NaN	520	0.18140332121402	2	1	NaN	4912336.0378676	NaN	4912337.0212671	4912337.53783078
58	21	1	0	90	36.1581920903955	36.241610738255	11	0.366691292375326	2	11	5	NaN	2	3	0.19294284117267	0	1	NaN	263	5	11	2	120	220	320	NaN	520	0.159826869145036	2	1	NaN	4912338.9714932	NaN	4912339.954902	4912340.47144653
58	21	1	0	90	36.1581920903955	36.241610738255	8	0.266684576272964	2	10	5	NaN	2	4	0.19294284117267	0	1	NaN	264	5	12	2	120	220	320	NaN	520	0.147628621198237	2	1	NaN	4912341.6717433	NaN	4912342.6551609	4912343.17171228
58	21	1	0	90	36.1581920903955	36.241610738255	23	0.766718156784773	2	10	1	NaN	2	4	0.19294284117267	0	1	NaN	265	5	13	2	120	220	320	NaN	520	0.168784916400909	2	1	NaN	4912344.1386635	NaN	4912345.1220708	4912345.63862558
58	21	1	0	90	36.1581920903955	36.241610738255	19	0.633375868648291	2	2	5	NaN	1	3	0.19294284117267	0	1	NaN	266	5	14	2	120	220	320	NaN	520	0.245413069613278	2	0	NaN	4912346.6222535	NaN	4912347.6056488	4912348.12219553
58	21	1	0	90	36.1581920903955	36.241610738255	20	0.666711440682411	2	8	1	NaN	2	3	0.19294284117267	0	1	NaN	267	5	15	2	120	220	320	NaN	520	0.182352616451681	2	1	NaN	4912349.1891567	NaN	4912350.1725769	4912350.68912348
58	21	1	0	90	36.1581920903955	36.241610738255	18	0.60004029661417	2	10	3	NaN	2	5	0.19294284117267	0	1	NaN	268	5	16	2	120	220	320	NaN	520	0.402225721627474	1	0	NaN	4912351.6893056	NaN	4912352.6728125	4912353.18936308
58	21	1	0	90	36.1581920903955	36.241610738255	24	0.800053728818893	2	10	6	NaN	2	5	0.19294284117267	0	1	NaN	269	5	17	2	120	220	320	NaN	520	0.100932369939983	1	0	NaN	4912354.4063999	NaN	4912355.3897517	4912355.90630253
58	21	1	0	90	36.1581920903955	36.241610738255	9	0.300020148307085	2	12	3	NaN	2	5	0.19294284117267	0	1	NaN	270	5	18	2	120	220	320	NaN	520	0.020373621955514	2	1	NaN	4912356.8232891	NaN	4912357.8066418	4912358.32320898
58	21	1	0	90	36.1581920903955	36.241610738255	0	0	1	10	4	NaN	2	3	0.19294284117267	0	1	NaN	271	5	19	2	110	210	310	NaN	510	0.0223697321489453	1	0	NaN	4912359.1568208	NaN	4912360.1402235	4912360.65677097
58	21	1	0	90	36.1581920903955	36.241610738255	15	0.500033580511808	2	3	6	NaN	1	3	0.19294284117267	0	1	NaN	272	5	20	2	120	220	320	NaN	520	0.19272072147578	2	0	NaN	4912361.4902514	NaN	4912362.4737719	4912362.99032428
58	21	1	0	90	36.1581920903955	36.241610738255	22	0.733382584750652	2	9	1	NaN	2	5	0.19294284117267	0	1	NaN	273	5	21	2	120	220	320	NaN	520	0.444067216478288	2	1	NaN	4912364.0072889	NaN	4912364.9907042	4912365.50723548
58	21	1	0	90	36.1581920903955	36.241610738255	8	0.266684576272964	2	9	4	NaN	2	5	0.19294284117267	0	1	NaN	274	5	22	2	120	220	320	NaN	520	0.0294942753389478	2	1	NaN	4912366.7575552	NaN	4912367.7409644	4912368.25751993
58	21	1	0	90	36.1581920903955	36.241610738255	19	0.633375868648291	2	1	4	NaN	1	5	0.19294284117267	0	1	NaN	275	5	23	2	120	220	320	NaN	520	0.010392121039331	1	1	NaN	4912369.1077984	NaN	4912370.0912001	4912370.60774448
58	21	1	0	90	36.1581920903955	36.241610738255	18	0.60004029661417	2	11	4	NaN	2	3	0.19294284117267	0	1	NaN	276	5	24	2	120	220	320	NaN	520	0.194625222124159	2	1	NaN	4912372.0247576	NaN	4912373.0081729	4912373.52470328
58	21	1	0	90	36.1581920903955	36.241610738255	23	0.766718156784773	2	5	6	NaN	1	5	0.19294284117267	0	1	NaN	277	5	25	2	120	220	320	NaN	520	0.166410321369767	1	1	NaN	4912374.524899	NaN	4912375.5084533	4912376.02494938
58	21	1	0	90	36.1581920903955	36.241610738255	12	0.400026864409447	2	4	5	NaN	1	3	0.19294284117267	0	1	NaN	278	5	26	2	120	220	320	NaN	520	0.64899315405637	1	1	NaN	4912377.4586205	NaN	4912378.4420208	4912378.95855935
58	21	1	0	90	36.1581920903955	36.241610738255	13	0.433362436443567	2	5	4	NaN	1	5	0.19294284117267	0	1	NaN	279	5	27	2	120	220	320	NaN	520	0.0819211695343256	1	1	NaN	4912380.4255799	NaN	4912381.4089981	4912381.92552183
58	21	1	0	90	36.1581920903955	36.241610738255	11	0.366691292375326	2	9	6	NaN	2	4	0.19294284117267	0	1	NaN	280	5	28	2	120	220	320	NaN	520	0.305550321005285	2	1	NaN	4912382.8258336	NaN	4912383.8091968	4912384.32575768
58	21	1	0	90	36.1581920903955	36.241610738255	8	0.266684576272964	2	9	6	NaN	2	4	0.19294284117267	0	1	NaN	281	5	29	2	120	220	320	NaN	520	0.0103934220969677	2	1	NaN	4912385.4427124	NaN	4912386.4261328	4912386.94268018
58	21	1	0	90	36.1581920903955	36.241610738255	14	0.466698008477688	2	11	6	NaN	2	3	0.19294284117267	0	1	NaN	282	5	30	2	120	220	320	NaN	520	0.283716827630997	2	1	NaN	4912387.7597172	NaN	4912388.7430221	4912389.25957797
58	21	1	0	90	36.1581920903955	36.241610738255	8	0.266684576272964	2	11	5	NaN	2	3	0.19294284117267	0	1	NaN	283	5	31	2	120	220	320	NaN	520	0.667561521753669	2	1	NaN	4912390.3598715	NaN	4912391.3432867	4912391.85983048
58	21	1	0	90	36.1581920903955	36.241610738255	19	0.633375868648291	2	4	3	NaN	1	4	0.19294284117267	0	1	NaN	284	5	32	2	120	220	320	NaN	520	0.227932222187519	1	1	NaN	4912393.3435078	NaN	4912394.3269081	4912394.84345618
58	21	1	0	90	36.1581920903955	36.241610738255	16	0.533369152545929	2	11	4	NaN	2	5	0.19294284117267	0	1	NaN	285	5	33	2	120	220	320	NaN	520	0.0104087218642235	2	1	NaN	4912395.8937704	NaN	4912396.8771414	4912397.39370918
58	21	1	0	90	36.1581920903955	36.241610738255	13	0.433362436443567	2	8	2	NaN	2	5	0.19294284117267	0	1	NaN	286	5	34	2	120	220	320	NaN	520	0.240859569050372	2	1	NaN	4912398.2106456	NaN	4912399.1940859	4912399.71059603
58	21	1	0	90	36.1581920903955	36.241610738255	9	0.300020148307085	2	3	5	NaN	1	3	0.19294284117267	0	1	NaN	287	5	35	2	120	220	320	NaN	520	0.210761621594429	1	1	NaN	4912400.7608962	NaN	4912401.7443038	4912402.26085848
58	21	1	0	90	36.1581920903955	36.241610738255	8	0.266684576272964	2	3	5	NaN	1	4	0.19294284117267	0	1	NaN	288	5	36	2	120	220	320	NaN	520	0.0104063693434	1	1	NaN	4912403.2777351	NaN	4912404.2612036	4912404.77776283
58	21	1	0	90	36.1581920903955	36.241610738255	16	0.533369152545929	2	6	6	NaN	1	5	0.19294284117267	0	1	NaN	289	5	37	2	120	220	320	NaN	520	0.0960234897211194	1	1	NaN	4912405.6113347	NaN	4912406.5947802	4912407.11134031
58	21	1	0	90	36.1581920903955	36.241610738255	13	0.433362436443567	2	11	1	NaN	2	3	0.19294284117267	0	1	NaN	290	5	38	2	120	220	320	NaN	520	0.0312443217262626	2	1	NaN	4912408.0282758	NaN	4912409.0117731	4912409.52823768
58	21	1	0	90	36.1581920903955	36.241610738255	11	0.366691292375326	2	10	3	NaN	2	3	0.19294284117267	0	1	NaN	291	5	39	2	120	220	320	NaN	520	0.30495416931808	2	1	NaN	4912410.3785088	NaN	4912411.3618953	4912411.87847033
58	21	1	0	90	36.1581920903955	36.241610738255	10	0.333355720341206	2	1	1	NaN	1	5	0.19294284117267	0	1	NaN	292	5	40	2	120	220	320	NaN	520	0.0103906216099858	2	0	NaN	4912412.9954337	NaN	4912413.9788352	4912414.49538848
58	21	1	0	90	36.1581920903955	36.241610738255	17	0.56670472458005	2	3	4	NaN	1	4	0.19294284117267	0	1	NaN	293	5	41	2	120	220	320	NaN	520	0.483397769741714	1	1	NaN	4912415.3123372	NaN	4912416.295739	4912416.81227943
58	21	1	0	90	36.1581920903955	36.241610738255	20	0.666711440682411	2	1	5	NaN	1	4	0.19294284117267	0	1	NaN	294	5	42	2	120	220	320	NaN	520	0.266902670264244	1	1	NaN	4912418.1126196	NaN	4912419.0960134	4912419.61255683
58	21	1	0	90	36.1581920903955	36.241610738255	18	0.60004029661417	2	12	5	NaN	2	5	0.19294284117267	0	1	NaN	295	5	43	2	120	220	320	NaN	520	0.283153168857098	1	0	NaN	4912420.6961847	NaN	4912421.6796119	4912422.19613883
58	21	1	0	90	36.1581920903955	36.241610738255	9	0.300020148307085	2	6	6	NaN	1	3	0.19294284117267	0	1	NaN	296	5	44	2	120	220	320	NaN	520	0.0103960214182734	1	1	NaN	4912423.2964444	NaN	4912424.2798408	4912424.79639608
58	21	1	0	90	36.1581920903955	36.241610738255	11	0.366691292375326	2	11	1	NaN	2	5	0.19294284117267	0	1	NaN	297	5	45	2	120	220	320	NaN	520	0.598064868710935	2	1	NaN	4912425.6133331	NaN	4912426.5967507	4912427.11329713
58	21	1	0	90	36.1581920903955	36.241610738255	25	0.833389300853014	2	5	4	NaN	1	3	0.19294284117267	0	1	NaN	298	5	46	2	120	220	320	NaN	520	0.010395921766758	2	0	NaN	4912428.5302892	NaN	4912429.5136974	4912430.03024868
58	21	1	0	90	36.1581920903955	36.241610738255	15	0.500033580511808	2	6	1	NaN	1	5	0.19294284117267	0	1	NaN	299	5	47	2	120	220	320	NaN	520	0.0915546212345362	1	1	NaN	4912430.8638551	NaN	4912431.8472612	4912432.36381558
58	21	1	0	90	36.1581920903955	36.241610738255	22	0.733382584750652	2	4	2	NaN	1	5	0.19294284117267	0	1	NaN	300	5	48	2	120	220	320	NaN	520	0.966346422210336	1	1	NaN	4912435.180929	NaN	4912436.1643535	4912436.68090948
58	21	1	0	90	36.1581920903955	36.241610738255	13	0.433362436443567	2	10	2	NaN	2	4	0.19294284117267	0	1	NaN	301	5	49	2	120	220	320	NaN	520	0.410951069556177	1	0	NaN	4912438.4645924	NaN	4912439.4479709	4912439.96456513
58	21	1	0	90	36.1581920903955	36.241610738255	25	0.833389300853014	2	6	6	NaN	1	5	0.19294284117267	0	1	NaN	302	5	50	2	120	220	320	NaN	520	0.211494642309844	1	1	NaN	4912441.6482425	NaN	4912442.631656	4912443.14820836
58	21	1	0	90	36.1581920903955	36.241610738255	12	0.400026864409447	2	6	5	NaN	1	3	0.19294284117267	0	1	NaN	303	5	51	2	120	220	320	NaN	520	0.314298270270228	1	1	NaN	4912444.6651848	NaN	4912445.6486241	4912446.16518143
58	21	1	0	90	36.1581920903955	36.241610738255	12	0.400026864409447	2	9	1	NaN	2	5	0.19294284117267	0	1	NaN	304	5	52	2	120	220	320	NaN	520	0.0104034217074513	1	0	NaN	4912447.2987991	NaN	4912448.282206	4912448.79875818
58	21	1	0	90	36.1581920903955	36.241610738255	16	0.533369152545929	2	12	3	NaN	2	5	0.19294284117267	0	1	NaN	305	5	53	2	120	220	320	NaN	520	1.54793566931039	2	1	NaN	4912449.61569	NaN	4912450.599089	4912451.11565203
58	21	1	0	90	36.1581920903955	36.241610738255	0	0	1	1	6	NaN	1	5	0.19294284117267	0	1	NaN	306	5	54	2	110	210	310	NaN	510	0.1846943218261	2	0	NaN	4912453.482619	NaN	4912454.4660448	4912454.98271838
58	21	1	0	90	36.1581920903955	36.241610738255	25	0.833389300853014	2	3	4	NaN	1	4	0.19294284117267	0	1	NaN	307	5	55	2	120	220	320	NaN	520	0.23643886949867	2	0	NaN	4912455.9829948	NaN	4912456.9664009	4912457.48294703
58	21	1	0	90	36.1581920903955	36.241610738255	11	0.366691292375326	2	3	4	NaN	1	5	0.19294284117267	0	1	NaN	308	5	56	2	120	220	320	NaN	520	0.0104111693799496	2	0	NaN	4912458.5332705	NaN	4912459.5166485	4912460.03320133
58	21	1	0	90	36.1581920903955	36.241610738255	10	0.333355720341206	2	11	2	NaN	2	4	0.19294284117267	0	1	NaN	309	5	57	2	120	220	320	NaN	520	0.160694021731615	2	1	NaN	4912460.8667044	NaN	4912461.8502171	4912462.36675788
58	21	1	0	90	36.1581920903955	36.241610738255	23	0.766718156784773	2	7	4	NaN	2	3	0.19294284117267	0	1	NaN	310	5	58	2	120	220	320	NaN	520	0.0684024691581726	2	1	NaN	4912463.7669709	NaN	4912464.7504806	4912465.26704733
58	21	1	0	90	36.1581920903955	36.241610738255	19	0.633375868648291	2	6	3	NaN	1	5	0.19294284117267	0	1	NaN	311	5	59	2	120	220	320	NaN	520	0.0448516216129065	1	1	NaN	4912466.1506614	NaN	4912467.1340732	4912467.65061188
58	21	1	0	90	36.1581920903955	36.241610738255	12	0.400026864409447	2	6	5	NaN	1	3	0.19294284117267	0	1	NaN	312	5	60	2	120	220	320	NaN	520	0.709947175346315	1	1	NaN	4912468.5175602	NaN	4912469.5009571	4912470.01752653
58	21	1	0	90	36.1581920903955	36.241610738255	21	0.700047012716532	2	10	2	NaN	2	5	0.19294284117267	0	1	NaN	313	5	61	2	120	220	320	NaN	520	3.02022644225508	2	1	NaN	4912471.5511887	NaN	4912472.5345981	4912473.05114176
58	21	1	0	90	36.1581920903955	36.241610738255	0	0	1	8	3	NaN	2	3	0.19294284117267	0	1	NaN	314	5	62	2	110	210	310	NaN	510	0.134615221992135	2	1	NaN	4912476.8850423	NaN	4912477.868461	4912478.38500438
58	21	1	0	90	36.1581920903955	36.241610738255	19	0.633375868648291	2	1	1	NaN	1	3	0.19294284117267	0	1	NaN	315	5	63	2	120	220	320	NaN	520	0.116326943039894	1	1	NaN	4912479.3352974	NaN	4912480.3186737	4912480.83524016
58	21	1	0	90	36.1581920903955	36.241610738255	23	0.766718156784773	2	12	3	NaN	2	4	0.19294284117267	0	1	NaN	316	6	1	2	120	220	320	NaN	520	0.461484321393073	2	1	NaN	4912486.8860205	NaN	4912487.8694377	4912488.38598208
58	21	1	0	90	36.1581920903955	36.241610738255	14	0.466698008477688	2	11	5	NaN	2	4	0.19294284117267	0	1	NaN	317	6	2	2	120	220	320	NaN	520	0.0103952214121819	2	1	NaN	4912489.6529954	NaN	4912490.6363615	4912491.15292068
58	21	1	0	90	36.1581920903955	36.241610738255	15	0.500033580511808	2	5	4	NaN	1	3	0.19294284117267	0	1	NaN	318	6	3	2	120	220	320	NaN	520	0.0104214698076248	2	0	NaN	4912491.9698623	NaN	4912492.9532491	4912493.46980973
58	21	1	0	90	36.1581920903955	36.241610738255	10	0.333355720341206	2	11	1	NaN	2	5	0.19294284117267	0	1	NaN	319	6	4	2	120	220	320	NaN	520	0.100791342556477	2	1	NaN	4912494.2867892	NaN	4912495.2701625	4912495.78671416
58	21	1	0	90	36.1581920903955	36.241610738255	16	0.533369152545929	2	4	2	NaN	1	3	0.19294284117267	0	1	NaN	320	6	5	2	120	220	320	NaN	520	0.0118128219619393	1	1	NaN	4912496.7036715	NaN	4912497.6870678	4912498.20361648
58	21	1	0	90	36.1581920903955	36.241610738255	14	0.466698008477688	2	2	1	NaN	1	3	0.19294284117267	0	1	NaN	321	6	6	2	120	220	320	NaN	520	0.199062321335077	1	1	NaN	4912499.0205467	NaN	4912500.0039521	4912500.52051438
58	21	1	0	90	36.1581920903955	36.241610738255	18	0.60004029661417	2	7	5	NaN	2	3	0.19294284117267	0	1	NaN	322	6	7	2	120	220	320	NaN	520	0.15335051715374	2	1	NaN	4912502.1541291	NaN	4912503.1375881	4912503.65414488
58	21	1	0	90	36.1581920903955	36.241610738255	7	0.233349004238844	2	3	6	NaN	1	3	0.19294284117267	0	1	NaN	323	6	8	2	120	220	320	NaN	520	0.0705373222008348	2	0	NaN	4912504.620967	NaN	4912505.604536	4912506.12105338
58	21	1	0	90	36.1581920903955	36.241610738255	23	0.766718156784773	2	1	6	NaN	1	4	0.19294284117267	0	1	NaN	324	6	9	2	120	220	320	NaN	520	6.39081362169236	2	0	NaN	4912507.0046778	NaN	4912507.9880889	4912508.50462698
58	21	1	0	90	36.1581920903955	36.241610738255	13	0.433362436443567	2	2	3	NaN	1	3	0.19294284117267	0	1	NaN	325	6	10	2	120	220	320	NaN	520	0.409316269680858	2	0	NaN	4912515.7221877	NaN	4912516.7055939	4912517.22214743
58	21	1	0	90	36.1581920903955	36.241610738255	24	0.800053728818893	2	3	1	NaN	1	5	0.19294284117267	0	1	NaN	326	6	11	2	120	220	320	NaN	520	0.0525773698464036	2	0	NaN	4912518.4390514	NaN	4912519.4225361	4912519.93908283
58	21	1	0	90	36.1581920903955	36.241610738255	7	0.233349004238844	2	10	4	NaN	2	5	0.19294284117267	0	1	NaN	327	6	12	2	120	220	320	NaN	520	0.277643769979477	2	1	NaN	4912520.8060378	NaN	4912521.7894102	4912522.30599613
58	21	1	0	90	36.1581920903955	36.241610738255	21	0.700047012716532	2	2	4	NaN	1	5	0.19294284117267	0	1	NaN	328	6	13	2	120	220	320	NaN	520	0.765968869440258	2	0	NaN	4912523.3896126	NaN	4912524.3729952	4912524.88959133
58	21	1	0	90	36.1581920903955	36.241610738255	23	0.766718156784773	2	6	3	NaN	1	3	0.19294284117267	0	1	NaN	329	6	14	2	120	220	320	NaN	520	0.278988069854677	1	1	NaN	4912526.5564606	NaN	4912527.540012	4912528.05654723
58	21	1	0	90	36.1581920903955	36.241610738255	0	0	1	6	6	NaN	1	5	0.19294284117267	0	1	NaN	330	6	15	2	110	210	310	NaN	510	0.494637264870107	1	1	NaN	4912529.1568485	NaN	4912530.1402548	4912530.65679604
58	21	1	0	90	36.1581920903955	36.241610738255	22	0.733382584750652	2	8	4	NaN	2	5	0.19294284117267	0	1	NaN	331	6	16	2	120	220	320	NaN	520	0.825276569463313	2	1	NaN	4912542.6581698	NaN	4912543.6415541	4912544.15813073
58	21	1	0	90	36.1581920903955	36.241610738255	13	0.433362436443567	2	4	3	NaN	1	3	0.19294284117267	0	1	NaN	332	6	17	2	120	220	320	NaN	520	0.403943469747901	2	0	NaN	4912545.7919042	NaN	4912546.7752922	4912547.29176233
58	21	1	0	90	36.1581920903955	36.241610738255	19	0.633375868648291	2	5	6	NaN	1	3	0.19294284117267	0	1	NaN	333	6	18	2	120	220	320	NaN	520	0.310543869622052	1	1	NaN	4912548.5087747	NaN	4912549.4921558	4912550.00869593
58	21	1	0	90	36.1581920903955	36.241610738255	25	0.833389300853014	2	1	3	NaN	1	5	0.19294284117267	0	1	NaN	334	6	19	2	120	220	320	NaN	520	0.532956121489406	1	1	NaN	4912551.1423355	NaN	4912552.1257586	4912552.64230128
58	21	1	0	90	36.1581920903955	36.241610738255	11	0.366691292375326	2	3	1	NaN	1	4	0.19294284117267	0	1	NaN	335	6	20	2	120	220	320	NaN	520	0.23696677852422	1	1	NaN	4912554.1425131	NaN	4912555.1260139	4912555.64259232
58	21	1	0	90	36.1581920903955	36.241610738255	24	0.800053728818893	2	6	5	NaN	1	3	0.19294284117267	0	1	NaN	336	6	21	2	120	220	320	NaN	520	0.010438515804708	1	1	NaN	4912556.6929817	NaN	4912557.6762947	4912558.19283298
58	21	1	0	90	36.1581920903955	36.241610738255	20	0.666711440682411	2	6	2	NaN	1	3	0.19294284117267	0	1	NaN	337	6	22	2	120	220	320	NaN	520	0.329372815787792	1	1	NaN	4912559.0264654	NaN	4912560.0098587	4912560.52640138
58	21	1	0	90	36.1581920903955	36.241610738255	25	0.833389300853014	2	11	3	NaN	2	3	0.19294284117267	0	1	NaN	338	6	23	2	120	220	320	NaN	520	0.223800221458077	1	0	NaN	4912561.6600519	NaN	4912562.6434476	4912563.15999468
58	21	1	0	90	36.1581920903955	36.241610738255	13	0.433362436443567	2	6	4	NaN	1	4	0.19294284117267	0	1	NaN	339	6	24	2	120	220	320	NaN	520	0.186287094838917	1	1	NaN	4912564.1936724	NaN	4912565.1770325	4912565.69358511
58	21	1	0	90	36.1581920903955	36.241610738255	13	0.433362436443567	2	1	4	NaN	1	4	0.19294284117267	0	1	NaN	340	6	25	2	120	220	320	NaN	520	0.11804186925292	1	1	NaN	4912566.6938704	NaN	4912567.6772717	4912568.19382473
58	21	1	0	90	36.1581920903955	36.241610738255	18	0.60004029661417	2	11	2	NaN	2	3	0.19294284117267	0	1	NaN	341	6	26	2	120	220	320	NaN	520	0.0521981222555041	1	0	NaN	4912569.1274402	NaN	4912570.110828	4912570.62739258
58	21	1	0	90	36.1581920903955	36.241610738255	20	0.666711440682411	2	12	1	NaN	2	4	0.19294284117267	0	1	NaN	342	6	27	2	120	220	320	NaN	520	0.149252520874143	2	1	NaN	4912571.4943438	NaN	4912572.4777416	4912572.99429338
58	21	1	0	90	36.1581920903955	36.241610738255	8	0.266684576272964	2	5	2	NaN	1	4	0.19294284117267	0	1	NaN	343	6	28	2	120	220	320	NaN	520	0.0424973694607615	1	1	NaN	4912573.9611316	NaN	4912574.9446544	4912575.46121733
58	21	1	0	90	36.1581920903955	36.241610738255	10	0.333355720341206	2	5	5	NaN	1	4	0.19294284117267	0	1	NaN	344	6	29	2	120	220	320	NaN	520	0.627561821602285	1	1	NaN	4912576.3281968	NaN	4912577.3115478	4912577.82809998
58	21	1	0	90	36.1581920903955	36.241610738255	0	0	1	2	2	NaN	1	5	0.19294284117267	0	1	NaN	345	6	30	2	110	210	310	NaN	510	0.413868822157383	1	1	NaN	4912579.261764	NaN	4912580.2451775	4912580.76172998
58	21	1	0	90	36.1581920903955	36.241610738255	7	0.233349004238844	2	2	6	NaN	1	4	0.19294284117267	0	1	NaN	346	6	31	2	120	220	320	NaN	520	0.240209621377289	2	0	NaN	4912581.9953661	NaN	4912582.9787684	4912583.49532478
58	21	1	0	90	36.1581920903955	36.241610738255	21	0.700047012716532	2	4	4	NaN	1	3	0.19294284117267	0	1	NaN	347	6	32	2	120	220	320	NaN	520	0.794437921606004	1	1	NaN	4912584.5456267	NaN	4912585.5290293	4912586.04557818
58	21	1	0	90	36.1581920903955	36.241610738255	12	0.400026864409447	2	1	2	NaN	1	5	0.19294284117267	0	1	NaN	348	6	33	2	120	220	320	NaN	520	0.0104403160512447	1	1	NaN	4912587.64595	NaN	4912588.6292489	4912589.14587548
58	21	1	0	90	36.1581920903955	36.241610738255	15	0.500033580511808	2	6	3	NaN	1	4	0.19294284117267	0	1	NaN	349	6	34	2	120	220	320	NaN	520	0.0722139216959476	1	1	NaN	4912589.9795047	NaN	4912590.9628992	4912591.47944288
58	21	1	0	90	36.1581920903955	36.241610738255	10	0.333355720341206	2	6	4	NaN	1	3	0.19294284117267	0	1	NaN	350	6	35	2	120	220	320	NaN	520	0.0103793740272522	1	1	NaN	4912592.3630484	NaN	4912593.3464657	4912593.86301803
58	21	1	0	90	36.1581920903955	36.241610738255	20	0.666711440682411	2	11	2	NaN	2	4	0.19294284117267	0	1	NaN	351	6	36	2	120	220	320	NaN	520	0.0518014216795564	2	1	NaN	4912594.6799598	NaN	4912595.6633485	4912596.17990588
58	21	1	0	90	36.1581920903955	36.241610738255	15	0.500033580511808	2	11	5	NaN	2	4	0.19294284117267	0	1	NaN	352	6	37	2	120	220	320	NaN	520	0.010385675355792	2	1	NaN	4912597.046733	NaN	4912598.0302724	4912598.54681362
58	21	1	0	90	36.1581920903955	36.241610738255	25	0.833389300853014	2	7	2	NaN	2	3	0.19294284117267	0	1	NaN	353	6	38	2	120	220	320	NaN	520	0.744272269308567	2	1	NaN	4912599.3637338	NaN	4912600.3471524	4912600.86370103
58	21	1	0	90	36.1581920903955	36.241610738255	6	0.200013432204723	2	9	6	NaN	2	4	0.19294284117267	0	1	NaN	354	6	39	2	120	220	320	NaN	520	0.429970669560134	2	1	NaN	4912602.4139162	NaN	4912603.3974385	4912603.91399503
58	21	1	0	90	36.1581920903955	36.241610738255	22	0.733382584750652	2	1	5	NaN	1	5	0.19294284117267	0	1	NaN	355	6	40	2	120	220	320	NaN	520	0.183467569760978	2	0	NaN	4912605.1643036	NaN	4912606.1477206	4912606.66427113
58	21	1	0	90	36.1581920903955	36.241610738255	7	0.233349004238844	2	5	4	NaN	1	4	0.19294284117267	0	1	NaN	356	6	41	2	120	220	320	NaN	520	0.563008721917868	2	0	NaN	4912607.6645657	NaN	4912608.6479613	4912609.16451818
58	21	1	0	90	36.1581920903955	36.241610738255	13	0.433362436443567	2	10	6	NaN	2	5	0.19294284117267	0	1	NaN	357	6	42	2	120	220	320	NaN	520	1.99187562149018	1	0	NaN	4912610.548166	NaN	4912611.5315871	4912612.04813208
58	21	1	0	90	36.1581920903955	36.241610738255	10	0.333355720341206	2	7	3	NaN	2	5	0.19294284117267	0	1	NaN	358	6	43	2	120	220	320	NaN	520	0.0910809217020869	2	1	NaN	4912614.8485763	NaN	4912615.8319055	4912616.34855588
58	21	1	0	90	36.1581920903955	36.241610738255	22	0.733382584750652	2	12	5	NaN	2	5	0.19294284117267	0	1	NaN	359	6	44	2	120	220	320	NaN	520	0.0108622219413519	2	1	NaN	4912617.248924	NaN	4912618.2322422	4912618.74879018
58	21	1	0	90	36.1581920903955	36.241610738255	14	0.466698008477688	2	8	6	NaN	2	5	0.19294284117267	0	1	NaN	360	6	45	2	120	220	320	NaN	520	0.26135927438736	2	1	NaN	4912619.5824048	NaN	4912620.5658016	4912621.08235793
58	21	1	0	90	36.1581920903955	36.241610738255	23	0.766718156784773	2	9	2	NaN	2	4	0.19294284117267	0	1	NaN	361	6	46	2	120	220	320	NaN	520	0.229482621885836	2	1	NaN	4912622.1659927	NaN	4912623.1493946	4912623.66594528
58	21	1	0	90	36.1581920903955	36.241610738255	6	0.200013432204723	2	3	4	NaN	1	3	0.19294284117267	0	1	NaN	362	6	47	2	120	220	320	NaN	520	0.255786421708763	2	0	NaN	4912624.7161347	NaN	4912625.6996347	4912626.21619808
58	21	1	0	90	36.1581920903955	36.241610738255	16	0.533369152545929	2	7	6	NaN	2	5	0.19294284117267	0	1	NaN	363	6	48	2	120	220	320	NaN	520	2.40038542170078	2	1	NaN	4912627.2831534	NaN	4912628.2665392	4912628.78311438
58	21	1	0	90	36.1581920903955	36.241610738255	20	0.666711440682411	2	7	2	NaN	2	3	0.19294284117267	0	1	NaN	364	6	49	2	120	220	320	NaN	520	0.187473922036588	2	1	NaN	4912632.0001546	NaN	4912632.9836724	4912633.50023508
58	21	1	0	90	36.1581920903955	36.241610738255	7	0.233349004238844	2	5	3	NaN	1	3	0.19294284117267	0	1	NaN	365	6	50	2	120	220	320	NaN	520	0.609626421704888	2	0	NaN	4912634.8338753	NaN	4912635.8173016	4912636.33384848
58	21	1	0	90	36.1581920903955	36.241610738255	25	0.833389300853014	2	4	3	NaN	1	3	0.19294284117267	0	1	NaN	366	6	51	2	120	220	320	NaN	520	0.53279596939683	2	0	NaN	4912637.7508601	NaN	4912638.734244	4912639.25079953
58	21	1	0	90	36.1581920903955	36.241610738255	14	0.466698008477688	2	6	5	NaN	1	3	0.19294284117267	0	1	NaN	367	6	52	2	120	220	320	NaN	520	0.362629869021475	1	1	NaN	4912640.6011356	NaN	4912641.5845348	4912642.10108413
58	21	1	0	90	36.1581920903955	36.241610738255	9	0.300020148307085	2	12	6	NaN	2	3	0.19294284117267	0	1	NaN	368	6	53	2	120	220	320	NaN	520	0.255325169302523	1	0	NaN	4912643.2846227	NaN	4912644.2681346	4912644.78468003
58	21	1	0	90	36.1581920903955	36.241610738255	7	0.233349004238844	2	4	2	NaN	1	5	0.19294284117267	0	1	NaN	369	6	54	2	120	220	320	NaN	520	0.19211982190609	1	1	NaN	4912645.8516516	NaN	4912646.8351152	4912647.35160008
58	21	1	0	90	36.1581920903955	36.241610738255	20	0.666711440682411	2	10	2	NaN	2	5	0.19294284117267	0	1	NaN	370	6	55	2	120	220	320	NaN	520	1.53199286945164	1	0	NaN	4912648.3519011	NaN	4912649.3352871	4912649.85184963
58	21	1	0	90	36.1581920903955	36.241610738255	21	0.700047012716532	2	9	4	NaN	2	3	0.19294284117267	0	1	NaN	371	6	56	2	120	220	320	NaN	520	0.0104711214080453	1	0	NaN	4912652.2022685	NaN	4912653.185678	4912653.70222628
58	21	1	0	90	36.1581920903955	36.241610738255	21	0.700047012716532	2	3	6	NaN	1	4	0.19294284117267	0	1	NaN	372	6	57	2	120	220	320	NaN	520	0.41995732113719	1	1	NaN	4912654.5358359	NaN	4912655.5192373	4912656.03579238
58	21	1	0	90	36.1581920903955	36.241610738255	0	0	1	5	3	NaN	1	4	0.19294284117267	0	1	NaN	373	6	58	2	110	210	310	NaN	510	0.358623116277158	1	1	NaN	4912657.269379	NaN	4912658.2528449	4912658.76939218
58	21	1	0	90	36.1581920903955	36.241610738255	16	0.533369152545929	2	8	2	NaN	2	4	0.19294284117267	0	1	NaN	374	6	59	2	120	220	320	NaN	520	0.0104074701666832	2	1	NaN	4912659.9362319	NaN	4912660.9197664	4912661.43631123
58	21	1	0	90	36.1581920903955	36.241610738255	24	0.800053728818893	2	11	3	NaN	2	3	0.19294284117267	0	1	NaN	375	6	60	2	120	220	320	NaN	520	0.206693922169507	2	1	NaN	4912662.253256	NaN	4912663.2366905	4912663.75321328
58	21	1	0	90	36.1581920903955	36.241610738255	25	0.833389300853014	2	2	1	NaN	1	5	0.19294284117267	0	1	NaN	376	6	61	2	120	220	320	NaN	520	0.129815500229597	2	0	NaN	4912664.7701795	NaN	4912665.7535706	4912666.2701554
58	21	1	0	90	36.1581920903955	36.241610738255	23	0.766718156784773	2	4	1	NaN	1	4	0.19294284117267	0	1	NaN	377	6	62	2	120	220	320	NaN	520	1.02324122190475	1	1	NaN	4912667.2204055	NaN	4912668.2038262	4912668.72036958
58	21	1	0	90	36.1581920903955	36.241610738255	14	0.466698008477688	2	10	5	NaN	2	4	0.19294284117267	0	1	NaN	378	6	63	2	120	220	320	NaN	520	0.0422873217612505	2	1	NaN	4912670.7373987	NaN	4912671.7208242	4912672.23738378
58	21	1	0	90	36.1581920903955	36.241610738255	16	0.533369152545929	2	5	6	NaN	1	3	0.19294284117267	0	1	NaN	379	7	1	2	120	220	320	NaN	520	0.146215621381998	2	0	NaN	4912733.9929732	NaN	4912734.9770554	4912735.49359048
58	21	1	0	90	36.1581920903955	36.241610738255	21	0.700047012716532	2	12	6	NaN	2	3	0.19294284117267	0	1	NaN	380	7	2	2	120	220	320	NaN	520	0.0102858897298574	1	0	NaN	4912736.4437523	NaN	4912737.4272909	4912737.94383701
58	21	1	0	90	36.1581920903955	36.241610738255	9	0.300020148307085	2	11	1	NaN	2	4	0.19294284117267	0	1	NaN	381	7	3	2	120	220	320	NaN	520	0.0271986220031977	1	0	NaN	4912738.7607672	NaN	4912739.7441728	4912740.26073438
58	21	1	0	90	36.1581920903955	36.241610738255	14	0.466698008477688	2	7	1	NaN	2	4	0.19294284117267	0	1	NaN	382	7	4	2	120	220	320	NaN	520	0.109523821622133	2	1	NaN	4912741.0943315	NaN	4912742.0777232	4912742.59429428
58	21	1	0	90	36.1581920903955	36.241610738255	15	0.500033580511808	2	4	4	NaN	1	5	0.19294284117267	0	1	NaN	383	7	5	2	120	220	320	NaN	520	0.132266469299793	1	1	NaN	4912743.5279273	NaN	4912744.511313	4912745.02785603
58	21	1	0	90	36.1581920903955	36.241610738255	25	0.833389300853014	2	10	1	NaN	2	4	0.19294284117267	0	1	NaN	384	7	6	2	120	220	320	NaN	520	0.250066821463406	2	1	NaN	4912745.9781523	NaN	4912746.961545	4912747.47810768
58	21	1	0	90	36.1581920903955	36.241610738255	18	0.60004029661417	2	2	6	NaN	1	5	0.19294284117267	0	1	NaN	385	7	7	2	120	220	320	NaN	520	0.0104200690984726	1	1	NaN	4912748.5450643	NaN	4912749.5284655	4912750.04502353
58	21	1	0	90	36.1581920903955	36.241610738255	11	0.366691292375326	2	12	1	NaN	2	3	0.19294284117267	0	1	NaN	386	7	8	2	120	220	320	NaN	520	0.126040221191943	2	1	NaN	4912750.8618491	NaN	4912751.845361	4912752.36191598
58	21	1	0	90	36.1581920903955	36.241610738255	20	0.666711440682411	2	3	3	NaN	1	4	0.19294284117267	0	1	NaN	387	7	9	2	120	220	320	NaN	520	0.0103983217850327	1	1	NaN	4912753.4622015	NaN	4912754.4456107	4912754.96217888
58	21	1	0	90	36.1581920903955	36.241610738255	11	0.366691292375326	2	12	6	NaN	2	3	0.19294284117267	0	1	NaN	388	7	10	2	120	220	320	NaN	520	0.297002969309688	2	1	NaN	4912755.7789939	NaN	4912756.7625256	4912757.27906923
58	21	1	0	90	36.1581920903955	36.241610738255	10	0.333355720341206	2	12	3	NaN	2	4	0.19294284117267	0	1	NaN	389	7	11	2	120	220	320	NaN	520	0.159971069544554	2	1	NaN	4912758.3960329	NaN	4912759.3794342	4912759.89598633
58	21	1	0	90	36.1581920903955	36.241610738255	6	0.200013432204723	2	12	5	NaN	2	5	0.19294284117267	0	1	NaN	390	7	12	2	120	220	320	NaN	520	0.533026522025466	2	1	NaN	4912760.8629467	NaN	4912761.846242	4912762.36291808
58	21	1	0	90	36.1581920903955	36.241610738255	22	0.733382584750652	2	5	5	NaN	1	4	0.19294284117267	0	1	NaN	391	7	13	2	120	220	320	NaN	520	0.130933868698776	1	1	NaN	4912763.713218	NaN	4912764.6966229	4912765.21318263
58	21	1	0	90	36.1581920903955	36.241610738255	11	0.366691292375326	2	8	1	NaN	2	5	0.19294284117267	0	1	NaN	392	7	14	2	120	220	320	NaN	520	0.145310621708632	2	1	NaN	4912766.1468301	NaN	4912767.1302644	4912767.64675398
58	21	1	0	90	36.1581920903955	36.241610738255	20	0.666711440682411	2	11	1	NaN	2	3	0.19294284117267	0	1	NaN	393	7	15	2	120	220	320	NaN	520	0.158575569279492	2	1	NaN	4912768.6137026	NaN	4912769.5970036	4912770.11365883
58	21	1	0	90	36.1581920903955	36.241610738255	16	0.533369152545929	2	4	5	NaN	1	5	0.19294284117267	0	1	NaN	394	7	16	2	120	220	320	NaN	520	0.0104041211307049	1	1	NaN	4912771.080611	NaN	4912772.0640211	4912772.58056848
58	21	1	0	90	36.1581920903955	36.241610738255	23	0.766718156784773	2	5	2	NaN	1	4	0.19294284117267	0	1	NaN	395	7	17	2	120	220	320	NaN	520	0.18969102203846	2	0	NaN	4912773.414187	NaN	4912774.3975792	4912774.91413178
58	21	1	0	90	36.1581920903955	36.241610738255	23	0.766718156784773	2	6	3	NaN	1	4	0.19294284117267	0	1	NaN	396	7	18	2	120	220	320	NaN	520	0.657512117177248	1	1	NaN	4912775.9143053	NaN	4912776.8978124	4912777.41437358
58	21	1	0	90	36.1581920903955	36.241610738255	23	0.766718156784773	2	2	2	NaN	1	5	0.19294284117267	0	1	NaN	397	7	19	2	120	220	320	NaN	520	0.0103934220969677	1	1	NaN	4912778.881275	NaN	4912779.8648085	4912780.38134358
58	21	1	0	90	36.1581920903955	36.241610738255	7	0.233349004238844	2	12	4	NaN	2	5	0.19294284117267	0	1	NaN	398	7	20	2	120	220	320	NaN	520	0.280888921581209	1	0	NaN	4912781.7148684	NaN	4912782.6984055	4912783.21494398
58	21	1	0	90	36.1581920903955	36.241610738255	6	0.200013432204723	2	2	1	NaN	1	5	0.19294284117267	0	1	NaN	399	7	21	2	120	220	320	NaN	520	0.281028669327497	1	1	NaN	4912784.315266	NaN	4912785.2986468	4912785.81519963
58	21	1	0	90	36.1581920903955	36.241610738255	14	0.466698008477688	2	12	4	NaN	2	4	0.19294284117267	0	1	NaN	400	7	22	2	120	220	320	NaN	520	0.288685521110892	1	0	NaN	4912787.11545	NaN	4912788.0989312	4912788.61547948
58	21	1	0	90	36.1581920903955	36.241610738255	17	0.56670472458005	2	11	4	NaN	2	4	0.19294284117267	0	1	NaN	401	7	23	2	120	220	320	NaN	520	0.232001770287752	1	0	NaN	4912789.7157858	NaN	4912790.6991736	4912791.21574123
58	21	1	0	90	36.1581920903955	36.241610738255	13	0.433362436443567	2	12	3	NaN	2	5	0.19294284117267	0	1	NaN	402	7	24	2	120	220	320	NaN	520	0.21325659006834	2	1	NaN	4912792.7827649	NaN	4912793.7661509	4912794.28271211
58	21	1	0	90	36.1581920903955	36.241610738255	6	0.200013432204723	2	10	2	NaN	2	3	0.19294284117267	0	1	NaN	403	7	25	2	120	220	320	NaN	520	0.504292242228985	1	0	NaN	4912795.2996644	NaN	4912796.2830676	4912796.79961736
58	21	1	0	90	36.1581920903955	36.241610738255	9	0.300020148307085	2	11	4	NaN	2	4	0.19294284117267	0	1	NaN	404	7	26	2	120	220	320	NaN	520	0.535384016111493	2	1	NaN	4912798.1166179	NaN	4912799.1000039	4912799.61656298
58	21	1	0	90	36.1581920903955	36.241610738255	19	0.633375868648291	2	4	3	NaN	1	4	0.19294284117267	0	1	NaN	405	7	27	2	120	220	320	NaN	520	0.525159269571304	1	1	NaN	4912800.9668907	NaN	4912801.950284	4912802.46684363
58	21	1	0	90	36.1581920903955	36.241610738255	21	0.700047012716532	2	3	2	NaN	1	5	0.19294284117267	0	1	NaN	406	7	28	2	120	220	320	NaN	520	0.487669121474028	1	1	NaN	4912804.3005029	NaN	4912805.2839511	4912805.80050508
58	21	1	0	90	36.1581920903955	36.241610738255	20	0.666711440682411	2	4	5	NaN	1	5	0.19294284117267	0	1	NaN	407	7	29	2	120	220	320	NaN	520	0.0104059213772416	1	1	NaN	4912807.100823	NaN	4912808.0842377	4912808.60078268
58	21	1	0	90	36.1581920903955	36.241610738255	21	0.700047012716532	2	7	5	NaN	2	4	0.19294284117267	0	1	NaN	408	7	30	2	120	220	320	NaN	520	0.257748569361866	2	1	NaN	4912809.4343902	NaN	4912810.4177754	4912810.93433713
58	21	1	0	90	36.1581920903955	36.241610738255	13	0.433362436443567	2	9	4	NaN	2	4	0.19294284117267	0	1	NaN	409	7	31	2	120	220	320	NaN	520	0.194667122326791	2	1	NaN	4912812.0013232	NaN	4912812.9847044	4912813.50125358
58	21	1	0	90	36.1581920903955	36.241610738255	13	0.433362436443567	2	9	2	NaN	2	4	0.19294284117267	0	1	NaN	410	7	32	2	120	220	320	NaN	520	0.213917021639645	1	0	NaN	4912814.5182101	NaN	4912815.5016054	4912816.01816818
58	21	1	0	90	36.1581920903955	36.241610738255	6	0.200013432204723	2	9	1	NaN	2	5	0.19294284117267	0	1	NaN	411	7	33	2	120	220	320	NaN	520	0.646533421240747	2	1	NaN	4912817.1018019	NaN	4912818.0851955	4912818.60175438
58	21	1	0	90	36.1581920903955	36.241610738255	24	0.800053728818893	2	12	2	NaN	2	3	0.19294284117267	0	1	NaN	412	7	34	2	120	220	320	NaN	520	0.175446011126041	1	0	NaN	4912820.0687604	NaN	4912821.0521708	4912821.56870829
58	21	1	0	90	36.1581920903955	36.241610738255	8	0.266684576272964	2	11	6	NaN	2	5	0.19294284117267	0	1	NaN	413	7	35	2	120	220	320	NaN	520	0.251777064055204	2	1	NaN	4912822.5523534	NaN	4912823.5357911	4912824.05228514
58	21	1	0	90	36.1581920903955	36.241610738255	17	0.56670472458005	2	8	1	NaN	2	3	0.19294284117267	0	1	NaN	414	7	36	2	120	220	320	NaN	520	0.380944279022515	2	1	NaN	4912825.1192715	NaN	4912826.1026919	4912826.61922092
58	21	1	0	90	36.1581920903955	36.241610738255	9	0.300020148307085	2	1	1	NaN	1	5	0.19294284117267	0	1	NaN	415	7	37	2	120	220	320	NaN	520	0.0485998690128326	2	0	NaN	4912827.8195413	NaN	4912828.8029162	4912829.31947313
58	21	1	0	90	36.1581920903955	36.241610738255	6	0.200013432204723	2	2	2	NaN	1	3	0.19294284117267	0	1	NaN	416	7	38	2	120	220	320	NaN	520	0.0735797695815563	1	1	NaN	4912830.1864523	NaN	4912831.1698273	4912831.68637943
58	21	1	0	90	36.1581920903955	36.241610738255	6	0.200013432204723	2	11	4	NaN	2	4	0.19294284117267	0	1	NaN	417	7	39	2	120	220	320	NaN	520	0.306185837835073	1	0	NaN	4912832.5699857	NaN	4912833.5533929	4912834.06995176
58	21	1	0	90	36.1581920903955	36.241610738255	12	0.400026864409447	2	1	2	NaN	1	5	0.19294284117267	0	1	NaN	418	7	40	2	120	220	320	NaN	520	0.912918369285762	1	1	NaN	4912835.1869159	NaN	4912836.170305	4912836.68686803
58	21	1	0	90	36.1581920903955	36.241610738255	7	0.233349004238844	2	4	1	NaN	1	4	0.19294284117267	0	1	NaN	419	7	41	2	120	220	320	NaN	520	0.200456022284925	1	1	NaN	4912838.4039066	NaN	4912839.3873214	4912839.90384518
58	21	1	0	90	36.1581920903955	36.241610738255	10	0.333355720341206	2	9	4	NaN	2	4	0.19294284117267	0	1	NaN	420	7	42	2	120	220	320	NaN	520	0.251506169326603	1	0	NaN	4912840.9208157	NaN	4912841.9042274	4912842.42076713
58	21	1	0	90	36.1581920903955	36.241610738255	23	0.766718156784773	2	4	6	NaN	1	3	0.19294284117267	0	1	NaN	421	7	43	2	120	220	320	NaN	520	0.0363344689831138	2	0	NaN	4912843.4877397	NaN	4912844.4711798	4912844.98768863
58	21	1	0	90	36.1581920903955	36.241610738255	20	0.666711440682411	2	8	2	NaN	2	4	0.19294284117267	0	1	NaN	422	7	44	2	120	220	320	NaN	520	0.142160570248961	2	1	NaN	4912845.8379489	NaN	4912846.8213684	4912847.33790973
58	21	1	0	90	36.1581920903955	36.241610738255	24	0.800053728818893	2	1	4	NaN	1	3	0.19294284117267	0	1	NaN	423	7	45	2	120	220	320	NaN	520	0.0720036700367928	2	0	NaN	4912848.3882418	NaN	4912849.3716193	4912849.88816563
58	21	1	0	90	36.1581920903955	36.241610738255	10	0.333355720341206	2	8	3	NaN	2	4	0.19294284117267	0	1	NaN	424	7	46	2	120	220	320	NaN	520	0.408315169624984	2	1	NaN	4912850.7717852	NaN	4912851.7551874	4912852.27172803
58	21	1	0	90	36.1581920903955	36.241610738255	13	0.433362436443567	2	1	4	NaN	1	3	0.19294284117267	0	1	NaN	425	7	47	2	120	220	320	NaN	520	0.0104227690026164	1	1	NaN	4912853.4886085	NaN	4912854.472123	4912854.98866493
58	21	1	0	90	36.1581920903955	36.241610738255	6	0.200013432204723	2	1	1	NaN	1	4	0.19294284117267	0	1	NaN	426	7	48	2	120	220	320	NaN	520	0.070554269477725	1	1	NaN	4912855.805597	NaN	4912856.7890103	4912857.30556343
58	21	1	0	90	36.1581920903955	36.241610738255	11	0.366691292375326	2	9	2	NaN	2	5	0.19294284117267	0	1	NaN	427	7	49	2	120	220	320	NaN	520	0.0229508699849248	1	0	NaN	4912858.1891687	NaN	4912859.1725601	4912859.68912883
58	21	1	0	90	36.1581920903955	36.241610738255	20	0.666711440682411	2	7	5	NaN	2	3	0.19294284117267	0	1	NaN	428	7	50	2	120	220	320	NaN	520	0.321475169621408	1	0	NaN	4912860.5227468	NaN	4912861.5061409	4912862.02268963
58	21	1	0	90	36.1581920903955	36.241610738255	7	0.233349004238844	2	6	2	NaN	1	3	0.19294284117267	0	1	NaN	429	7	51	2	120	220	320	NaN	520	1.02366782166064	1	1	NaN	4912863.156419	NaN	4912864.1397268	4912864.65628248
58	21	1	0	90	36.1581920903955	36.241610738255	15	0.500033580511808	2	7	5	NaN	2	3	0.19294284117267	0	1	NaN	430	7	52	2	120	220	320	NaN	520	0.250036369077861	2	1	NaN	4912866.4899787	NaN	4912867.4733906	4912867.98994453
58	21	1	0	90	36.1581920903955	36.241610738255	19	0.633375868648291	2	7	4	NaN	2	3	0.19294284117267	0	1	NaN	431	7	53	2	120	220	320	NaN	520	0.555218420922756	1	0	NaN	4912869.0569237	NaN	4912870.0403161	4912870.55686258
58	21	1	0	90	36.1581920903955	36.241610738255	17	0.56670472458005	2	10	3	NaN	2	5	0.19294284117267	0	1	NaN	432	7	54	2	120	220	320	NaN	520	0.320203894749284	1	0	NaN	4912871.9238656	NaN	4912872.9072493	4912873.42381511
58	21	1	0	90	36.1581920903955	36.241610738255	14	0.466698008477688	2	3	5	NaN	1	4	0.19294284117267	0	1	NaN	433	7	55	2	120	220	320	NaN	520	0.28566372115165	1	1	NaN	4912874.5907673	NaN	4912875.5742298	4912876.09073778
58	21	1	0	90	36.1581920903955	36.241610738255	16	0.533369152545929	2	8	5	NaN	2	5	0.19294284117267	0	1	NaN	434	7	56	2	120	220	320	NaN	520	0.29286336991936	2	1	NaN	4912877.1910483	NaN	4912878.1744522	4912878.69099393
58	21	1	0	90	36.1581920903955	36.241610738255	11	0.366691292375326	2	5	2	NaN	1	4	0.19294284117267	0	1	NaN	435	7	57	2	120	220	320	NaN	520	0.578417521901429	1	1	NaN	4912880.2580777	NaN	4912881.2414467	4912881.75795818
58	21	1	0	90	36.1581920903955	36.241610738255	24	0.800053728818893	2	4	1	NaN	1	4	0.19294284117267	0	1	NaN	436	7	58	2	120	220	320	NaN	520	0.134464069269598	2	0	NaN	4912883.1416169	NaN	4912884.1250312	4912884.64157993
58	21	1	0	90	36.1581920903955	36.241610738255	23	0.766718156784773	2	3	3	NaN	1	3	0.19294284117267	0	1	NaN	437	7	59	2	120	220	320	NaN	520	0.0104039218276739	1	1	NaN	4912885.5917604	NaN	4912886.5752683	4912887.09182408
58	21	1	0	90	36.1581920903955	36.241610738255	24	0.800053728818893	2	5	5	NaN	1	3	0.19294284117267	0	1	NaN	438	7	60	2	120	220	320	NaN	520	0.0104072699323297	1	1	NaN	4912887.9087694	NaN	4912888.8921769	4912889.40871693
58	21	1	0	90	36.1581920903955	36.241610738255	23	0.766718156784773	2	12	4	NaN	2	3	0.19294284117267	0	1	NaN	439	7	61	2	120	220	320	NaN	520	0.0104108694940805	1	0	NaN	4912890.2256094	NaN	4912891.2090454	4912891.72560723
58	21	1	0	90	36.1581920903955	36.241610738255	16	0.533369152545929	2	9	6	NaN	2	3	0.19294284117267	0	1	NaN	440	7	62	2	120	220	320	NaN	520	0.125165821053088	1	0	NaN	4912892.5592087	NaN	4912893.5426213	4912894.05916818
58	21	1	0	90	36.1581920903955	36.241610738255	21	0.700047012716532	2	5	1	NaN	1	5	0.19294284117267	0	1	NaN	441	7	63	2	120	220	320	NaN	520	0.387304474599659	1	1	NaN	4912894.992679	NaN	4912895.9762194	4912896.49275183
58	21	1	0	90	36.1581920903955	36.241610738255	7	0.233349004238844	2	2	5	NaN	1	3	0.19294284117267	0	1	NaN	442	8	1	2	120	220	320	NaN	520	0.694381721317768	2	0	NaN	4912900.5099937	NaN	4912901.4933971	4912902.00995078
58	21	1	0	90	36.1581920903955	36.241610738255	6	0.200013432204723	2	11	6	NaN	2	5	0.19294284117267	0	1	NaN	443	8	2	2	120	220	320	NaN	520	0.0291832694783807	2	1	NaN	4912903.5269657	NaN	4912904.5103697	4912905.02691593
58	21	1	0	90	36.1581920903955	36.241610738255	17	0.56670472458005	2	8	6	NaN	2	3	0.19294284117267	0	1	NaN	444	8	3	2	120	220	320	NaN	520	0.342848169617355	1	0	NaN	4912905.8771936	NaN	4912906.8606592	4912907.37714623
58	21	1	0	90	36.1581920903955	36.241610738255	6	0.200013432204723	2	10	1	NaN	2	4	0.19294284117267	0	1	NaN	445	8	4	2	120	220	320	NaN	520	0.0526337260380387	2	1	NaN	4912908.5273385	NaN	4912909.5108508	4912910.02740277
58	21	1	0	90	36.1581920903955	36.241610738255	22	0.733382584750652	2	11	5	NaN	2	3	0.19294284117267	0	1	NaN	446	8	5	2	120	220	320	NaN	520	0.0457105217501521	2	1	NaN	4912910.8943434	NaN	4912911.877751	4912912.39430728
58	21	1	0	90	36.1581920903955	36.241610738255	8	0.266684576272964	2	3	2	NaN	1	4	0.19294284117267	0	1	NaN	447	8	6	2	120	220	320	NaN	520	0.0316737163811922	1	1	NaN	4912913.2444633	NaN	4912914.2279874	4912914.74453548
58	21	1	0	90	36.1581920903955	36.241610738255	10	0.333355720341206	2	4	4	NaN	1	3	0.19294284117267	0	1	NaN	448	8	7	2	120	220	320	NaN	520	0.153266969136894	1	1	NaN	4912915.5948128	NaN	4912916.5781968	4912917.09476153
58	21	1	0	90	36.1581920903955	36.241610738255	8	0.266684576272964	2	8	2	NaN	2	5	0.19294284117267	0	1	NaN	449	8	8	2	120	220	320	NaN	520	0.4057422215119	2	1	NaN	4912918.078387	NaN	4912919.0618293	4912919.57834968
58	21	1	0	90	36.1581920903955	36.241610738255	22	0.733382584750652	2	1	6	NaN	1	5	0.19294284117267	0	1	NaN	450	8	9	2	120	220	320	NaN	520	0.0329968212172389	1	1	NaN	4912920.7952446	NaN	4912921.7787208	4912922.29528138
58	21	1	0	90	36.1581920903955	36.241610738255	11	0.366691292375326	2	1	4	NaN	1	5	0.19294284117267	0	1	NaN	451	8	10	2	120	220	320	NaN	520	0.510726269334555	1	1	NaN	4912923.6455825	NaN	4912924.6290087	4912925.14556573
58	21	1	0	90	36.1581920903955	36.241610738255	10	0.333355720341206	2	4	4	NaN	1	3	0.19294284117267	0	1	NaN	452	8	11	2	120	220	320	NaN	520	0.0435563744977117	1	1	NaN	4912926.9125735	NaN	4912927.8959836	4912928.41255043
58	21	1	0	90	36.1581920903955	36.241610738255	24	0.800053728818893	2	5	5	NaN	1	4	0.19294284117267	0	1	NaN	453	8	12	2	120	220	320	NaN	520	0.477569669485092	1	1	NaN	4912929.2628305	NaN	4912930.2462338	4912930.76278213
58	21	1	0	90	36.1581920903955	36.241610738255	17	0.56670472458005	2	6	5	NaN	1	5	0.19294284117267	0	1	NaN	454	8	13	2	120	220	320	NaN	520	0.301207621581852	1	1	NaN	4912932.4631206	NaN	4912933.4465338	4912933.96309608
58	21	1	0	90	36.1581920903955	36.241610738255	18	0.60004029661417	2	1	4	NaN	1	3	0.19294284117267	0	1	NaN	455	8	14	2	120	220	320	NaN	520	0.172219869680703	1	1	NaN	4912935.0800688	NaN	4912936.0634526	4912936.58001593
58	21	1	0	90	36.1581920903955	36.241610738255	14	0.466698008477688	2	12	5	NaN	2	5	0.19294284117267	0	1	NaN	456	8	15	2	120	220	320	NaN	520	0.696479122154415	1	0	NaN	4912937.563634	NaN	4912938.5470297	4912939.06359338
58	21	1	0	90	36.1581920903955	36.241610738255	11	0.366691292375326	2	5	2	NaN	1	5	0.19294284117267	0	1	NaN	457	8	16	2	120	220	320	NaN	520	0.143570622429252	2	0	NaN	4912940.5804763	NaN	4912941.5640058	4912942.08055688
58	21	1	0	90	36.1581920903955	36.241610738255	13	0.433362436443567	2	6	4	NaN	1	5	0.19294284117267	0	1	NaN	458	8	17	2	120	220	320	NaN	520	0.213551669381559	2	0	NaN	4912943.0307354	NaN	4912944.0142507	4912944.53079023
58	21	1	0	90	36.1581920903955	36.241610738255	14	0.466698008477688	2	1	1	NaN	1	5	0.19294284117267	0	1	NaN	459	8	18	2	120	220	320	NaN	520	0.704674621112645	1	1	NaN	4912945.547642	NaN	4912946.5311491	4912947.04771198
58	21	1	0	90	36.1581920903955	36.241610738255	19	0.633375868648291	2	8	5	NaN	2	3	0.19294284117267	0	1	NaN	460	8	19	2	120	220	320	NaN	520	0.639259974472225	2	1	NaN	4912948.564713	NaN	4912949.5481176	4912950.06467653
58	21	1	0	90	36.1581920903955	36.241610738255	25	0.833389300853014	2	9	3	NaN	2	5	0.19294284117267	0	1	NaN	461	8	20	2	120	220	320	NaN	520	0.0652753068134189	2	1	NaN	4912951.5150004	NaN	4912952.4984137	4912953.01496799
