subjno	age	gender	isPractice	viewdist	CmToPixX	CmToPixY	SOA_frm	SOA_time	targNum	targID	targExample	targRace	targGender	firstTargPos	contrast	familiarity	curr_staircase	iStair	TrialNum	BlockNum	blktrl	sessionNum	TC_FIXATION	TC_RSVP_START	TC_RSVP_END	TC_BLANK	TC_RESPONSE_ONSET	RT2afc	resp_2afc	acc	RSVPOnsetVBL	RSVPOnsetTime	RSVPOffsetVBL	RSVPOffsetTime	startrt_2afc
53	20	0	0	90	36.1581920903955	36.241610738255	15	0.500036700256169	2	8	3	NaN	2	3	0.124892836072298	0	1	NaN	1	1	1	1	120	220	320	NaN	520	0.978134674951434	2	1	NaN	3021032.3036558	NaN	3021033.2869362	3021033.82006912
53	20	0	0	90	36.1581920903955	36.241610738255	8	0.266686240136623	2	10	2	NaN	2	5	0.124892836072298	0	1	NaN	2	1	2	1	120	220	320	NaN	520	0.667673374991864	2	1	NaN	3021035.6539745	NaN	3021036.6372718	3021037.17039922
53	20	0	0	90	36.1581920903955	36.241610738255	23	0.766722940392792	2	6	2	NaN	1	3	0.124892836072298	0	1	NaN	3	1	3	1	120	220	320	NaN	520	0.538985975086689	1	1	NaN	3021038.6707602	NaN	3021039.6541242	3021040.18736232
53	20	0	0	90	36.1581920903955	36.241610738255	21	0.700051380358636	2	8	6	NaN	2	3	0.124892836072298	0	1	NaN	4	1	4	1	120	220	320	NaN	520	3.93972782790661	1	0	NaN	3021042.254407	NaN	3021043.2378157	3021043.75436987
53	20	0	0	90	36.1581920903955	36.241610738255	15	0.500036700256169	2	5	5	NaN	1	4	0.124892836072298	0	1	NaN	5	1	5	1	120	220	320	NaN	520	1.64890243811533	1	1	NaN	3021048.5050246	NaN	3021049.4884449	3021050.00499276
53	20	0	0	90	36.1581920903955	36.241610738255	6	0.200014680102468	2	4	3	NaN	1	5	0.124892836072298	0	1	NaN	6	1	6	1	120	220	320	NaN	520	3.53009181795642	1	1	NaN	3021052.4720953	NaN	3021053.4555043	3021053.97203788
53	20	0	0	90	36.1581920903955	36.241610738255	17	0.566708260290325	2	4	4	NaN	1	5	0.124892836072298	0	1	NaN	7	1	7	1	120	220	320	NaN	520	1.23139757057652	1	1	NaN	3021058.3226915	NaN	3021059.3060698	3021059.82262063
53	20	0	0	90	36.1581920903955	36.241610738255	0	0	1	3	2	NaN	1	5	0.124892836072298	0	1	NaN	8	1	8	1	110	210	310	NaN	510	0.713076413143426	1	1	NaN	3021061.8730564	NaN	3021062.8564097	3021063.37295929
53	20	0	0	90	36.1581920903955	36.241610738255	0	0	1	11	1	NaN	2	5	0.124892836072298	0	1	NaN	9	1	9	1	110	210	310	NaN	510	3.75903817033395	2	1	NaN	3021064.9066489	NaN	3021065.8900563	3021066.40659973
53	20	0	0	90	36.1581920903955	36.241610738255	12	0.400029360204935	2	3	3	NaN	1	4	0.124892836072298	0	1	NaN	10	1	10	1	120	220	320	NaN	520	2.77150341821834	1	1	NaN	3021070.9905872	NaN	3021071.973974	3021072.49053558
53	20	0	0	90	36.1581920903955	36.241610738255	23	0.766722940392792	2	7	1	NaN	2	3	0.124892836072298	0	1	NaN	11	1	11	1	120	220	320	NaN	520	0.99948427034542	1	0	NaN	3021076.0743501	NaN	3021077.0578128	3021077.57437213
53	20	0	0	90	36.1581920903955	36.241610738255	17	0.566708260290325	2	8	5	NaN	2	3	0.124892836072298	0	1	NaN	12	1	12	1	120	220	320	NaN	520	0.426698270253837	1	0	NaN	3021079.3912814	NaN	3021080.3748697	3021080.89135163
53	20	0	0	90	36.1581920903955	36.241610738255	15	0.500036700256169	2	2	1	NaN	1	5	0.124892836072298	0	1	NaN	13	1	13	1	120	220	320	NaN	520	3.65236807009205	1	1	NaN	3021082.1416884	NaN	3021083.1250904	3021083.64163003
53	20	0	0	90	36.1581920903955	36.241610738255	6	0.200014680102468	2	6	4	NaN	1	3	0.124892836072298	0	1	NaN	14	1	14	1	120	220	320	NaN	520	0.405263670254499	1	1	NaN	3021088.1089357	NaN	3021089.0924057	3021089.60887623
53	20	0	0	90	36.1581920903955	36.241610738255	18	0.600044040307403	2	2	5	NaN	1	5	0.124892836072298	0	1	NaN	15	1	15	1	120	220	320	NaN	520	0.471761637832969	1	1	NaN	3021090.8425418	NaN	3021091.8259418	3021092.34248636
53	20	0	0	90	36.1581920903955	36.241610738255	9	0.300022020153701	2	2	6	NaN	1	3	0.124892836072298	0	1	NaN	16	1	16	1	120	220	320	NaN	520	0.303389170207083	2	0	NaN	3021093.642799	NaN	3021094.6262069	3021095.14275613
53	20	0	0	90	36.1581920903955	36.241610738255	11	0.366693580187857	2	4	3	NaN	1	5	0.124892836072298	0	1	NaN	17	1	17	1	120	220	320	NaN	520	3.541574370116	2	0	NaN	3021096.8764622	NaN	3021097.8598617	3021098.37641633
53	20	0	0	90	36.1581920903955	36.241610738255	24	0.80005872040987	2	9	4	NaN	2	5	0.124892836072298	0	1	NaN	18	1	18	1	120	220	320	NaN	520	0.850300970487297	2	1	NaN	3021102.7437068	NaN	3021103.7271053	3021104.24364733
53	20	0	0	90	36.1581920903955	36.241610738255	19	0.633379820324481	2	1	4	NaN	1	4	0.124892836072298	0	1	NaN	19	1	19	1	120	220	320	NaN	520	0.739323584828526	1	1	NaN	3021105.9105494	NaN	3021106.8940836	3021107.41063261
53	20	0	0	90	36.1581920903955	36.241610738255	7	0.233350460119545	2	8	2	NaN	2	4	0.124892836072298	0	1	NaN	20	1	20	1	120	220	320	NaN	520	0.784498623106629	2	1	NaN	3021108.9776855	NaN	3021109.9610757	3021110.47759998
53	20	0	0	90	36.1581920903955	36.241610738255	17	0.566708260290325	2	10	4	NaN	2	3	0.124892836072298	0	1	NaN	21	1	21	1	120	220	320	NaN	520	0.300179970450699	2	1	NaN	3021112.0779784	NaN	3021113.0613594	3021113.57790803
53	20	0	0	90	36.1581920903955	36.241610738255	10	0.333357800170779	2	5	3	NaN	1	5	0.124892836072298	0	1	NaN	22	1	22	1	120	220	320	NaN	520	0.33957958035171	1	1	NaN	3021114.6948741	NaN	3021115.6782675	3021116.19482652
53	20	0	0	90	36.1581920903955	36.241610738255	22	0.733387160375714	2	5	2	NaN	1	3	0.124892836072298	0	1	NaN	23	1	23	1	120	220	320	NaN	520	0.408275417983532	2	0	NaN	3021117.3618076	NaN	3021118.3452237	3021118.86175998
53	20	0	0	90	36.1581920903955	36.241610738255	0	0	1	1	4	NaN	1	5	0.124892836072298	0	1	NaN	24	1	24	1	110	210	310	NaN	510	6.15478936582804	1	1	NaN	3021120.0954211	NaN	3021121.0788106	3021121.59536203
53	20	0	0	90	36.1581920903955	36.241610738255	11	0.366693580187857	2	10	4	NaN	2	5	0.124892836072298	0	1	NaN	25	1	25	1	120	220	320	NaN	520	0.431555342394859	2	1	NaN	3021128.5629207	NaN	3021129.5463003	3021130.06286666
53	20	0	0	90	36.1581920903955	36.241610738255	15	0.500036700256169	2	9	1	NaN	2	5	0.124892836072298	0	1	NaN	26	1	26	1	120	220	320	NaN	520	0.290324380155653	2	1	NaN	3021131.4798227	NaN	3021132.4632598	3021132.97981422
53	20	0	0	90	36.1581920903955	36.241610738255	18	0.600044040307403	2	1	4	NaN	1	3	0.124892836072298	0	1	NaN	27	1	27	1	120	220	320	NaN	520	0.338317270390689	1	1	NaN	3021134.0801323	NaN	3021135.0635295	3021135.58006863
53	20	0	0	90	36.1581920903955	36.241610738255	18	0.600044040307403	2	11	1	NaN	2	4	0.124892836072298	0	1	NaN	28	1	28	1	120	220	320	NaN	520	0.511389717459679	2	1	NaN	3021136.7470726	NaN	3021137.7304516	3021138.24700128
53	20	0	0	90	36.1581920903955	36.241610738255	13	0.433365140222013	2	3	3	NaN	1	5	0.124892836072298	0	1	NaN	29	1	29	1	120	220	320	NaN	520	0.573802423197776	1	1	NaN	3021139.5806487	NaN	3021140.5640572	3021141.08060888
53	20	0	0	90	36.1581920903955	36.241610738255	21	0.700051380358636	2	2	2	NaN	1	3	0.124892836072298	0	1	NaN	30	1	30	1	120	220	320	NaN	520	4.78595553245395	1	1	NaN	3021142.4643588	NaN	3021143.4476623	3021143.96423397
53	20	0	0	90	36.1581920903955	36.241610738255	15	0.500036700256169	2	7	4	NaN	2	5	0.124892836072298	0	1	NaN	31	1	31	1	120	220	320	NaN	520	0.317320870701224	2	1	NaN	3021149.5649908	NaN	3021150.5483762	3021151.06492343
53	20	0	0	90	36.1581920903955	36.241610738255	23	0.766722940392792	2	9	6	NaN	2	4	0.124892836072298	0	1	NaN	32	1	32	1	120	220	320	NaN	520	3.69169550295919	2	1	NaN	3021152.1985866	NaN	3021153.1819703	3021153.6985095
53	20	0	0	90	36.1581920903955	36.241610738255	17	0.566708260290325	2	11	5	NaN	2	5	0.124892836072298	0	1	NaN	33	1	33	1	120	220	320	NaN	520	0.498201423324645	2	1	NaN	3021158.2158269	NaN	3021159.1992233	3021159.71577758
53	20	0	0	90	36.1581920903955	36.241610738255	21	0.700051380358636	2	4	4	NaN	1	5	0.124892836072298	0	1	NaN	34	1	34	1	120	220	320	NaN	520	0.713755070697516	1	1	NaN	3021161.0326221	NaN	3021162.0161752	3021162.53271773
53	20	0	0	90	36.1581920903955	36.241610738255	14	0.466700920239091	2	2	5	NaN	1	5	0.124892836072298	0	1	NaN	35	1	35	1	120	220	320	NaN	520	0.320129723288119	2	0	NaN	3021164.066376	NaN	3021165.0498013	3021165.56635808
53	20	0	0	90	36.1581920903955	36.241610738255	24	0.80005872040987	2	9	1	NaN	2	3	0.124892836072298	0	1	NaN	36	1	36	1	120	220	320	NaN	520	0.726255117915571	2	1	NaN	3021166.6999885	NaN	3021167.6834226	3021168.19994988
53	20	0	0	90	36.1581920903955	36.241610738255	20	0.666715600341559	2	6	2	NaN	1	4	0.124892836072298	0	1	NaN	37	1	37	1	120	220	320	NaN	520	3.96596337528899	1	1	NaN	3021169.9001768	NaN	3021170.883688	3021171.40026022
53	20	0	0	90	36.1581920903955	36.241610738255	8	0.266686240136623	2	4	3	NaN	1	5	0.124892836072298	0	1	NaN	38	1	38	1	120	220	320	NaN	520	0.530683070421219	1	1	NaN	3021176.1674493	NaN	3021177.1509872	3021177.66754503
53	20	0	0	90	36.1581920903955	36.241610738255	24	0.80005872040987	2	1	2	NaN	1	5	0.124892836072298	0	1	NaN	39	1	39	1	120	220	320	NaN	520	0.368578717578202	2	0	NaN	3021179.0178823	NaN	3021180.0012758	3021180.51781868
53	20	0	0	90	36.1581920903955	36.241610738255	23	0.766722940392792	2	2	4	NaN	1	5	0.124892836072298	0	1	NaN	40	1	40	1	120	220	320	NaN	520	6.02079437067732	2	0	NaN	3021181.7014551	NaN	3021182.6848663	3021183.20141423
53	20	0	0	90	36.1581920903955	36.241610738255	11	0.366693580187857	2	5	5	NaN	1	4	0.124892836072298	0	1	NaN	41	1	41	1	120	220	320	NaN	520	0.54262107051909	1	1	NaN	3021190.0356258	NaN	3021191.0190293	3021191.53556683
53	20	0	0	90	36.1581920903955	36.241610738255	9	0.300022020153701	2	11	2	NaN	2	4	0.124892836072298	0	1	NaN	42	1	42	1	120	220	320	NaN	520	1.16424301778898	2	1	NaN	3021193.085924	NaN	3021194.0693361	3021194.58586598
53	20	0	0	90	36.1581920903955	36.241610738255	14	0.466700920239091	2	12	3	NaN	2	3	0.124892836072298	0	1	NaN	43	1	43	1	120	220	320	NaN	520	0.65383547032252	2	1	NaN	3021196.8362727	NaN	3021197.8196934	3021198.33623473
53	20	0	0	90	36.1581920903955	36.241610738255	18	0.600044040307403	2	12	1	NaN	2	5	0.124892836072298	0	1	NaN	44	1	44	1	120	220	320	NaN	520	0.523118680343032	2	1	NaN	3021201.3034414	NaN	3021202.2867953	3021202.80335402
53	20	0	0	90	36.1581920903955	36.241610738255	20	0.666715600341559	2	8	3	NaN	2	4	0.124892836072298	0	1	NaN	45	1	45	1	120	220	320	NaN	520	2.88906047027558	2	1	NaN	3021204.1370395	NaN	3021205.1204089	3021205.63695403
53	20	0	0	90	36.1581920903955	36.241610738255	19	0.633379820324481	2	2	1	NaN	1	3	0.124892836072298	0	1	NaN	46	1	46	1	120	220	320	NaN	520	0.480654370505363	1	1	NaN	3021209.3375069	NaN	3021210.3208107	3021210.83746473
53	20	0	0	90	36.1581920903955	36.241610738255	7	0.233350460119545	2	1	6	NaN	1	3	0.124892836072298	0	1	NaN	47	1	47	1	120	220	320	NaN	520	0.466431717853993	2	0	NaN	3021213.0878716	NaN	3021214.0713144	3021214.58784178
53	20	0	0	90	36.1581920903955	36.241610738255	13	0.433365140222013	2	4	5	NaN	1	3	0.124892836072298	0	1	NaN	48	1	48	1	120	220	320	NaN	520	0.802593670319766	2	0	NaN	3021215.8714905	NaN	3021216.854899	3021217.37144603
53	20	0	0	90	36.1581920903955	36.241610738255	9	0.300022020153701	2	10	6	NaN	2	4	0.124892836072298	0	1	NaN	49	1	49	1	120	220	320	NaN	520	0.310038870200515	2	1	NaN	3021218.98848	NaN	3021219.9719084	3021220.48842003
53	20	0	0	90	36.1581920903955	36.241610738255	14	0.466700920239091	2	11	4	NaN	2	5	0.124892836072298	0	1	NaN	50	1	50	1	120	220	320	NaN	520	0.413214970380068	2	1	NaN	3021221.6054097	NaN	3021222.5888626	3021223.10533713
53	20	0	0	90	36.1581920903955	36.241610738255	25	0.833394500426948	2	10	4	NaN	2	3	0.124892836072298	0	1	NaN	51	1	51	1	120	220	320	NaN	520	0.40731436572969	2	1	NaN	3021224.3389843	NaN	3021225.3224083	3021225.83893803
53	20	0	0	90	36.1581920903955	36.241610738255	22	0.733387160375714	2	10	2	NaN	2	3	0.124892836072298	0	1	NaN	52	1	52	1	120	220	320	NaN	520	0.322354317642748	1	0	NaN	3021227.055934	NaN	3021228.0393366	3021228.55587778
53	20	0	0	90	36.1581920903955	36.241610738255	12	0.400029360204935	2	8	4	NaN	2	4	0.124892836072298	0	1	NaN	53	1	53	1	120	220	320	NaN	520	4.83264927053824	2	1	NaN	3021229.6895286	NaN	3021230.6729304	3021231.18946703
53	20	0	0	90	36.1581920903955	36.241610738255	19	0.633379820324481	2	10	6	NaN	2	3	0.124892836072298	0	1	NaN	54	1	54	1	120	220	320	NaN	520	0.602326970081776	2	1	NaN	3021236.8402277	NaN	3021237.8236518	3021238.34017333
53	20	0	0	90	36.1581920903955	36.241610738255	23	0.766722940392792	2	12	4	NaN	2	3	0.124892836072298	0	1	NaN	55	1	55	1	120	220	320	NaN	520	0.308984417933971	2	1	NaN	3021239.757174	NaN	3021240.7405905	3021241.25712558
53	20	0	0	90	36.1581920903955	36.241610738255	22	0.733387160375714	2	6	5	NaN	1	4	0.124892836072298	0	1	NaN	56	1	56	1	120	220	320	NaN	520	0.460580717772245	1	1	NaN	3021242.374111	NaN	3021243.3574932	3021243.87405138
53	20	0	0	90	36.1581920903955	36.241610738255	20	0.666715600341559	2	7	5	NaN	2	3	0.124892836072298	0	1	NaN	57	1	57	1	120	220	320	NaN	520	0.333485170267522	2	1	NaN	3021245.1409753	NaN	3021246.1244527	3021246.64098893
53	20	0	0	90	36.1581920903955	36.241610738255	14	0.466700920239091	2	12	4	NaN	2	5	0.124892836072298	0	1	NaN	58	1	58	1	120	220	320	NaN	520	1.1548910276033	2	1	NaN	3021247.7912754	NaN	3021248.7747154	3021249.29124787
53	20	0	0	90	36.1581920903955	36.241610738255	15	0.500036700256169	2	5	1	NaN	1	4	0.124892836072298	0	1	NaN	59	1	59	1	120	220	320	NaN	520	0.368267017882317	1	1	NaN	3021251.2583222	NaN	3021252.2417472	3021252.75825798
53	20	0	0	90	36.1581920903955	36.241610738255	21	0.700051380358636	2	11	2	NaN	2	5	0.124892836072298	0	1	NaN	60	1	60	1	120	220	320	NaN	520	0.460394570138305	1	0	NaN	3021253.9419048	NaN	3021254.9253137	3021255.44185113
53	20	0	0	90	36.1581920903955	36.241610738255	19	0.633379820324481	2	12	4	NaN	2	3	0.124892836072298	0	1	NaN	61	1	61	1	120	220	320	NaN	520	0.35752567043528	1	0	NaN	3021256.7088438	NaN	3021257.692287	3021258.20879063
53	20	0	0	90	36.1581920903955	36.241610738255	12	0.400029360204935	2	1	2	NaN	1	5	0.124892836072298	0	1	NaN	62	1	62	1	120	220	320	NaN	520	0.346512623131275	2	0	NaN	3021259.3757098	NaN	3021260.3591841	3021260.87573238
53	20	0	0	90	36.1581920903955	36.241610738255	22	0.733387160375714	2	12	5	NaN	2	4	0.124892836072298	0	1	NaN	63	1	63	1	120	220	320	NaN	520	5.85606237035245	2	1	NaN	3021262.0427387	NaN	3021263.0261149	3021263.54265533
53	20	0	0	90	36.1581920903955	36.241610738255	20	0.666715600341559	2	12	5	NaN	2	3	0.124892836072298	0	1	NaN	64	2	1	1	120	220	320	NaN	520	0.803102685138583	1	0	NaN	3021311.8475749	NaN	3021312.8310125	3021313.34755701
53	20	0	0	90	36.1581920903955	36.241610738255	22	0.733387160375714	2	2	1	NaN	1	5	0.124892836072298	0	1	NaN	65	2	2	1	120	220	320	NaN	520	0.413875817786902	2	0	NaN	3021314.964579	NaN	3021315.9479775	3021316.46451758
53	20	0	0	90	36.1581920903955	36.241610738255	9	0.300022020153701	2	4	1	NaN	1	3	0.124892836072298	0	1	NaN	66	2	3	1	120	220	320	NaN	520	0.632580917794257	2	0	NaN	3021317.6982091	NaN	3021318.6815842	3021319.19812308
53	20	0	0	90	36.1581920903955	36.241610738255	14	0.466700920239091	2	6	5	NaN	1	4	0.124892836072298	0	1	NaN	67	2	4	1	120	220	320	NaN	520	0.30586911784485	1	1	NaN	3021320.6484772	NaN	3021321.6318734	3021322.14841818
53	20	0	0	90	36.1581920903955	36.241610738255	19	0.633379820324481	2	5	6	NaN	1	5	0.124892836072298	0	1	NaN	68	2	5	1	120	220	320	NaN	520	0.440919170621783	1	1	NaN	3021323.2654163	NaN	3021324.2487862	3021324.76535603
53	20	0	0	90	36.1581920903955	36.241610738255	20	0.666715600341559	2	1	1	NaN	1	5	0.124892836072298	0	1	NaN	69	2	6	1	120	220	320	NaN	520	0.315052070654929	1	1	NaN	3021326.0156532	NaN	3021326.9990688	3021327.51560923
53	20	0	0	90	36.1581920903955	36.241610738255	14	0.466700920239091	2	11	6	NaN	2	5	0.124892836072298	0	1	NaN	70	2	7	1	120	220	320	NaN	520	0.321488070767373	2	1	NaN	3021328.6493199	NaN	3021329.6326585	3021330.14920533
53	20	0	0	90	36.1581920903955	36.241610738255	7	0.233350460119545	2	12	4	NaN	2	3	0.124892836072298	0	1	NaN	71	2	8	1	120	220	320	NaN	520	0.271666017826647	2	1	NaN	3021331.2828383	NaN	3021332.2662244	3021332.78279648
53	20	0	0	90	36.1581920903955	36.241610738255	9	0.300022020153701	2	1	2	NaN	1	5	0.124892836072298	0	1	NaN	72	2	9	1	120	220	320	NaN	520	4.69780067075044	2	0	NaN	3021334.4164455	NaN	3021335.3998987	3021335.91643423
53	20	0	0	90	36.1581920903955	36.241610738255	8	0.266686240136623	2	4	4	NaN	1	3	0.124892836072298	0	1	NaN	73	2	10	1	120	220	320	NaN	520	0.312731070443988	1	1	NaN	3021341.4338425	NaN	3021342.4172456	3021342.93379353
53	20	0	0	90	36.1581920903955	36.241610738255	21	0.700051380358636	2	9	3	NaN	2	4	0.124892836072298	0	1	NaN	74	2	11	1	120	220	320	NaN	520	0.400164023041725	1	0	NaN	3021344.0507751	NaN	3021345.034172	3021345.55073798
53	20	0	0	90	36.1581920903955	36.241610738255	9	0.300022020153701	2	9	3	NaN	2	5	0.124892836072298	0	1	NaN	75	2	12	1	120	220	320	NaN	520	0.562711117789149	2	1	NaN	3021346.7677037	NaN	3021347.7511182	3021348.26764438
53	20	0	0	90	36.1581920903955	36.241610738255	9	0.300022020153701	2	11	4	NaN	2	5	0.124892836072298	0	1	NaN	76	2	13	1	120	220	320	NaN	520	0.295495117548853	2	1	NaN	3021349.6513257	NaN	3021350.6347293	3021351.15126108
53	20	0	0	90	36.1581920903955	36.241610738255	22	0.733387160375714	2	1	6	NaN	1	5	0.124892836072298	0	1	NaN	77	2	14	1	120	220	320	NaN	520	0.806376670487225	1	1	NaN	3021352.2682244	NaN	3021353.2516379	3021353.76818843
53	20	0	0	90	36.1581920903955	36.241610738255	23	0.766722940392792	2	12	1	NaN	2	4	0.124892836072298	0	1	NaN	78	2	15	1	120	220	320	NaN	520	3.69743527052924	2	1	NaN	3021355.3852471	NaN	3021356.3686135	3021356.88515803
53	20	0	0	90	36.1581920903955	36.241610738255	20	0.666715600341559	2	9	2	NaN	2	4	0.124892836072298	0	1	NaN	79	2	16	1	120	220	320	NaN	520	0.992777817882597	2	1	NaN	3021361.3857991	NaN	3021362.3692016	3021362.88575088
53	20	0	0	90	36.1581920903955	36.241610738255	11	0.366693580187857	2	12	2	NaN	2	3	0.124892836072298	0	1	NaN	80	2	17	1	120	220	320	NaN	520	0.340383718255907	2	1	NaN	3021364.6861961	NaN	3021365.6695316	3021366.18607938
53	20	0	0	90	36.1581920903955	36.241610738255	13	0.433365140222013	2	7	5	NaN	2	3	0.124892836072298	0	1	NaN	81	2	18	1	120	220	320	NaN	520	0.378382670227438	2	1	NaN	3021367.3363919	NaN	3021368.3197893	3021368.83634353
53	20	0	0	90	36.1581920903955	36.241610738255	12	0.400029360204935	2	1	5	NaN	1	3	0.124892836072298	0	1	NaN	82	2	19	1	120	220	320	NaN	520	0.365966670680791	1	1	NaN	3021370.036675	NaN	3021371.0200569	3021371.53661263
53	20	0	0	90	36.1581920903955	36.241610738255	8	0.266686240136623	2	12	3	NaN	2	3	0.124892836072298	0	1	NaN	83	2	20	1	120	220	320	NaN	520	0.546390937641263	2	1	NaN	3021372.7202589	NaN	3021373.703656	3021374.22020606
53	20	0	0	90	36.1581920903955	36.241610738255	21	0.700051380358636	2	7	4	NaN	2	4	0.124892836072298	0	1	NaN	84	2	21	1	120	220	320	NaN	520	0.40760887041688	2	1	NaN	3021375.5872092	NaN	3021376.5706113	3021377.08715843
53	20	0	0	90	36.1581920903955	36.241610738255	14	0.466700920239091	2	9	2	NaN	2	4	0.124892836072298	0	1	NaN	85	2	22	1	120	220	320	NaN	520	3.33048372296616	2	1	NaN	3021378.3041436	NaN	3021379.2875388	3021379.80409168
53	20	0	0	90	36.1581920903955	36.241610738255	16	0.533372480273247	2	2	3	NaN	1	4	0.124892836072298	0	1	NaN	86	2	23	1	120	220	320	NaN	520	0.448649970348924	1	1	NaN	3021383.9380192	NaN	3021384.9214412	3021385.43797903
53	20	0	0	90	36.1581920903955	36.241610738255	10	0.333357800170779	2	6	3	NaN	1	4	0.124892836072298	0	1	NaN	87	2	24	1	120	220	320	NaN	520	0.282369765918702	1	1	NaN	3021386.6882836	NaN	3021387.6716793	3021388.18823743
53	20	0	0	90	36.1581920903955	36.241610738255	8	0.266686240136623	2	5	4	NaN	1	3	0.124892836072298	0	1	NaN	88	2	25	1	120	220	320	NaN	520	0.186151170171797	1	1	NaN	3021389.2885658	NaN	3021390.2719372	3021390.78849253
53	20	0	0	90	36.1581920903955	36.241610738255	0	0	1	4	5	NaN	1	3	0.124892836072298	0	1	NaN	89	2	26	1	110	210	310	NaN	510	0.164845570456237	1	1	NaN	3021391.8054637	NaN	3021392.7888739	3021393.30540703
53	20	0	0	90	36.1581920903955	36.241610738255	13	0.433365140222013	2	8	4	NaN	2	3	0.124892836072298	0	1	NaN	90	2	27	1	120	220	320	NaN	520	0.289777623023838	2	1	NaN	3021394.2890363	NaN	3021395.2724234	3021395.78899118
53	20	0	0	90	36.1581920903955	36.241610738255	10	0.333357800170779	2	4	3	NaN	1	3	0.124892836072298	0	1	NaN	91	2	28	1	120	220	320	NaN	520	0.233631427865475	1	1	NaN	3021396.8893137	NaN	3021397.872675	3021398.38924697
53	20	0	0	90	36.1581920903955	36.241610738255	11	0.366693580187857	2	8	3	NaN	2	5	0.124892836072298	0	1	NaN	92	2	29	1	120	220	320	NaN	520	0.299336817581207	2	1	NaN	3021399.4395411	NaN	3021400.4229705	3021400.93949818
53	20	0	0	90	36.1581920903955	36.241610738255	12	0.400029360204935	2	5	1	NaN	1	3	0.124892836072298	0	1	NaN	93	2	30	1	120	220	320	NaN	520	0.513540623243898	1	1	NaN	3021402.073182	NaN	3021403.0564502	3021403.57309248
53	20	0	0	90	36.1581920903955	36.241610738255	21	0.700051380358636	2	1	5	NaN	1	4	0.124892836072298	0	1	NaN	94	2	31	1	120	220	320	NaN	520	0.328283370472491	1	1	NaN	3021404.906746	NaN	3021405.8901448	3021406.40669883
53	20	0	0	90	36.1581920903955	36.241610738255	9	0.300022020153701	2	12	5	NaN	2	5	0.124892836072298	0	1	NaN	95	2	32	1	120	220	320	NaN	520	4.40561641799286	2	1	NaN	3021407.5570142	NaN	3021408.5404148	3021409.05695358
53	20	0	0	90	36.1581920903955	36.241610738255	20	0.666715600341559	2	8	6	NaN	2	4	0.124892836072298	0	1	NaN	96	2	33	1	120	220	320	NaN	520	0.768467870540917	1	0	NaN	3021414.2743383	NaN	3021415.2577495	3021415.77428843
53	20	0	0	90	36.1581920903955	36.241610738255	10	0.333357800170779	2	1	5	NaN	1	4	0.124892836072298	0	1	NaN	97	2	34	1	120	220	320	NaN	520	0.34066421771422	2	0	NaN	3021417.3579719	NaN	3021418.3413692	3021418.85791918
53	20	0	0	90	36.1581920903955	36.241610738255	12	0.400029360204935	2	11	4	NaN	2	5	0.124892836072298	0	1	NaN	98	2	35	1	120	220	320	NaN	520	0.458327670581639	2	1	NaN	3021420.0082306	NaN	3021420.991635	3021421.50817993
53	20	0	0	90	36.1581920903955	36.241610738255	25	0.833394500426948	2	1	5	NaN	1	5	0.124892836072298	0	1	NaN	99	2	36	1	120	220	320	NaN	520	0.45976386545226	2	0	NaN	3021422.7751633	NaN	3021423.7585867	3021424.27511603
53	20	0	0	90	36.1581920903955	36.241610738255	9	0.300022020153701	2	7	4	NaN	2	5	0.124892836072298	0	1	NaN	100	2	37	1	120	220	320	NaN	520	4.9483646703884	2	1	NaN	3021425.5419788	NaN	3021426.5255108	3021427.04206603
53	20	0	0	90	36.1581920903955	36.241610738255	13	0.433365140222013	2	1	2	NaN	1	4	0.124892836072298	0	1	NaN	101	2	38	1	120	220	320	NaN	520	0.328532770741731	1	1	NaN	3021432.826156	NaN	3021433.8095705	3021434.32610583
53	20	0	0	90	36.1581920903955	36.241610738255	21	0.700051380358636	2	2	4	NaN	1	5	0.124892836072298	0	1	NaN	102	2	39	1	120	220	320	NaN	520	0.518522670026869	1	1	NaN	3021435.4764387	NaN	3021436.4598165	3021436.97637373
53	20	0	0	90	36.1581920903955	36.241610738255	13	0.433365140222013	2	12	2	NaN	2	3	0.124892836072298	0	1	NaN	103	2	40	1	120	220	320	NaN	520	0.332593623083085	2	1	NaN	3021438.3101266	NaN	3021439.2934395	3021439.80998378
53	20	0	0	90	36.1581920903955	36.241610738255	14	0.466700920239091	2	5	3	NaN	1	3	0.124892836072298	0	1	NaN	104	2	41	1	120	220	320	NaN	520	0.546338570304215	2	0	NaN	3021440.9602972	NaN	3021441.9437194	3021442.46024503
53	20	0	0	90	36.1581920903955	36.241610738255	19	0.633379820324481	2	3	3	NaN	1	3	0.124892836072298	0	1	NaN	105	2	42	1	120	220	320	NaN	520	0.319912642706186	1	1	NaN	3021443.8105653	NaN	3021444.7939845	3021445.31053256
53	20	0	0	90	36.1581920903955	36.241610738255	11	0.366693580187857	2	2	6	NaN	1	3	0.124892836072298	0	1	NaN	106	2	43	1	120	220	320	NaN	520	1.0307019231841	2	0	NaN	3021446.4441736	NaN	3021447.4275609	3021447.94412558
53	20	0	0	90	36.1581920903955	36.241610738255	12	0.400029360204935	2	8	2	NaN	2	5	0.124892836072298	0	1	NaN	107	2	44	1	120	220	320	NaN	520	0.304173847194761	1	0	NaN	3021449.7943588	NaN	3021450.7779117	3021451.29446685
53	20	0	0	90	36.1581920903955	36.241610738255	17	0.566708260290325	2	12	1	NaN	2	3	0.124892836072298	0	1	NaN	108	2	45	1	120	220	320	NaN	520	0.631006670650095	2	1	NaN	3021452.4114225	NaN	3021453.3948235	3021453.91137213
53	20	0	0	90	36.1581920903955	36.241610738255	12	0.400029360204935	2	5	6	NaN	1	4	0.124892836072298	0	1	NaN	109	2	46	1	120	220	320	NaN	520	0.665241317823529	1	1	NaN	3021455.3617077	NaN	3021456.3451075	3021456.86166738
53	20	0	0	90	36.1581920903955	36.241610738255	16	0.533372480273247	2	4	6	NaN	1	5	0.124892836072298	0	1	NaN	110	2	47	1	120	220	320	NaN	520	3.32925411779433	1	1	NaN	3021458.3453293	NaN	3021459.3287721	3021459.84528548
53	20	0	0	90	36.1581920903955	36.241610738255	25	0.833394500426948	2	7	6	NaN	2	5	0.124892836072298	0	1	NaN	111	2	48	1	120	220	320	NaN	520	0.407717465888709	2	1	NaN	3021463.9791753	NaN	3021464.9626324	3021465.47916693
53	20	0	0	90	36.1581920903955	36.241610738255	16	0.533372480273247	2	5	5	NaN	1	4	0.124892836072298	0	1	NaN	112	2	49	1	120	220	320	NaN	520	3.07474327040836	1	1	NaN	3021466.6961732	NaN	3021467.6795514	3021468.19610323
53	20	0	0	90	36.1581920903955	36.241610738255	14	0.466700920239091	2	1	3	NaN	1	4	0.124892836072298	0	1	NaN	113	2	50	1	120	220	320	NaN	520	0.650605117436498	1	1	NaN	3021472.0798985	NaN	3021473.0634238	3021473.57996658
53	20	0	0	90	36.1581920903955	36.241610738255	8	0.266686240136623	2	1	6	NaN	1	3	0.124892836072298	0	1	NaN	114	2	51	1	120	220	320	NaN	520	0.299954917747527	1	1	NaN	3021475.0470882	NaN	3021476.0303753	3021476.54692468
53	20	0	0	90	36.1581920903955	36.241610738255	17	0.566708260290325	2	3	6	NaN	1	4	0.124892836072298	0	1	NaN	115	2	52	1	120	220	320	NaN	520	0.602661523036659	2	0	NaN	3021477.6640054	NaN	3021478.6472982	3021479.16386178
53	20	0	0	90	36.1581920903955	36.241610738255	0	0	1	9	4	NaN	2	4	0.124892836072298	0	1	NaN	116	2	53	1	110	210	310	NaN	510	0.454064342658967	2	1	NaN	3021480.5807335	NaN	3021481.564272	3021482.08082046
53	20	0	0	90	36.1581920903955	36.241610738255	25	0.833394500426948	2	6	5	NaN	1	4	0.124892836072298	0	1	NaN	117	2	54	1	120	220	320	NaN	520	0.607033465523273	1	1	NaN	3021483.3477954	NaN	3021484.331187	3021484.84774673
53	20	0	0	90	36.1581920903955	36.241610738255	8	0.266686240136623	2	12	5	NaN	2	4	0.124892836072298	0	1	NaN	118	2	55	1	120	220	320	NaN	520	0.290078970603645	2	1	NaN	3021486.2646065	NaN	3021487.2481597	3021487.76469243
53	20	0	0	90	36.1581920903955	36.241610738255	20	0.666715600341559	2	2	2	NaN	1	4	0.124892836072298	0	1	NaN	119	2	56	1	120	220	320	NaN	520	0.266010765917599	1	1	NaN	3021488.864868	NaN	3021489.8484096	3021490.36494963
53	20	0	0	90	36.1581920903955	36.241610738255	19	0.633379820324481	2	9	3	NaN	2	4	0.124892836072298	0	1	NaN	120	2	57	1	120	220	320	NaN	520	2.88208827003837	2	1	NaN	3021491.4485871	NaN	3021492.4320076	3021492.94853623
53	20	0	0	90	36.1581920903955	36.241610738255	12	0.400029360204935	2	12	2	NaN	2	5	0.124892836072298	0	1	NaN	121	2	58	1	120	220	320	NaN	520	0.386284217704087	2	1	NaN	3021496.632332	NaN	3021497.6158454	3021498.13238768
53	20	0	0	90	36.1581920903955	36.241610738255	14	0.466700920239091	2	8	1	NaN	2	3	0.124892836072298	0	1	NaN	122	2	59	1	120	220	320	NaN	520	0.350062442477793	1	0	NaN	3021499.3327118	NaN	3021500.3161156	3021500.83266036
53	20	0	0	90	36.1581920903955	36.241610738255	23	0.766722940392792	2	3	2	NaN	1	4	0.124892836072298	0	1	NaN	123	2	60	1	120	220	320	NaN	520	0.387129517737776	2	0	NaN	3021501.9996251	NaN	3021502.9830136	3021503.49958228
53	20	0	0	90	36.1581920903955	36.241610738255	0	0	1	2	4	NaN	1	4	0.124892836072298	0	1	NaN	124	2	61	1	110	210	310	NaN	510	0.370503018144518	2	0	NaN	3021505.2165762	NaN	3021506.2000222	3021506.71656318
53	20	0	0	90	36.1581920903955	36.241610738255	10	0.333357800170779	2	8	1	NaN	2	5	0.124892836072298	0	1	NaN	125	2	62	1	120	220	320	NaN	520	2.74281787034124	1	0	NaN	3021507.9000899	NaN	3021508.8836097	3021509.40016003
53	20	0	0	90	36.1581920903955	36.241610738255	11	0.366693580187857	2	1	2	NaN	1	3	0.124892836072298	0	1	NaN	126	2	63	1	120	220	320	NaN	520	0.556168370414525	2	0	NaN	3021512.950664	NaN	3021513.9341276	3021514.45065153
53	20	0	0	90	36.1581920903955	36.241610738255	0	0	1	12	1	NaN	2	5	0.124892836072298	0	1	NaN	127	3	1	1	110	210	310	NaN	510	3.90487921796739	2	1	NaN	3021546.9540153	NaN	3021547.9374614	3021548.45399698
53	20	0	0	90	36.1581920903955	36.241610738255	10	0.333357800170779	2	2	6	NaN	1	5	0.124892836072298	0	1	NaN	128	3	2	1	120	220	320	NaN	520	0.441077865660191	2	0	NaN	3021553.7380278	NaN	3021554.7213413	3021555.23799303
53	20	0	0	90	36.1581920903955	36.241610738255	8	0.266686240136623	2	7	4	NaN	2	5	0.124892836072298	0	1	NaN	129	3	3	1	120	220	320	NaN	520	0.410413823090494	2	1	NaN	3021556.48843	NaN	3021557.4717353	3021557.98827208
53	20	0	0	90	36.1581920903955	36.241610738255	14	0.466700920239091	2	8	1	NaN	2	5	0.124892836072298	0	1	NaN	130	3	4	1	120	220	320	NaN	520	0.749765617772937	2	1	NaN	3021559.205134	NaN	3021560.1886441	3021560.70519688
53	20	0	0	90	36.1581920903955	36.241610738255	15	0.500036700256169	2	9	4	NaN	2	5	0.124892836072298	0	1	NaN	131	3	5	1	120	220	320	NaN	520	0.978805470746011	1	0	NaN	3021562.2722657	NaN	3021563.2556217	3021563.77216873
53	20	0	0	90	36.1581920903955	36.241610738255	16	0.533372480273247	2	7	2	NaN	2	4	0.124892836072298	0	1	NaN	132	3	6	1	120	220	320	NaN	520	4.59502837061882	2	1	NaN	3021565.655885	NaN	3021566.6392781	3021567.15583883
53	20	0	0	90	36.1581920903955	36.241610738255	21	0.700051380358636	2	10	1	NaN	2	5	0.124892836072298	0	1	NaN	133	3	7	1	120	220	320	NaN	520	0.558418717700988	2	1	NaN	3021572.5564491	NaN	3021573.5400144	3021574.05651838
53	20	0	0	90	36.1581920903955	36.241610738255	9	0.300022020153701	2	2	6	NaN	1	3	0.124892836072298	0	1	NaN	134	3	8	1	120	220	320	NaN	520	0.202548170462251	2	0	NaN	3021575.4400363	NaN	3021576.4236191	3021576.94013333
53	20	0	0	90	36.1581920903955	36.241610738255	15	0.500036700256169	2	1	4	NaN	1	3	0.124892836072298	0	1	NaN	135	3	9	1	120	220	320	NaN	520	0.318060217890888	1	1	NaN	3021577.9570839	NaN	3021578.9405061	3021579.45704278
53	20	0	0	90	36.1581920903955	36.241610738255	6	0.200014680102468	2	5	1	NaN	1	5	0.124892836072298	0	1	NaN	136	3	10	1	120	220	320	NaN	520	0.292224770411849	1	1	NaN	3021580.5906791	NaN	3021581.5740959	3021582.09064983
53	20	0	0	90	36.1581920903955	36.241610738255	10	0.333357800170779	2	5	5	NaN	1	5	0.124892836072298	0	1	NaN	137	3	11	1	120	220	320	NaN	520	3.97193467011675	1	1	NaN	3021583.1909881	NaN	3021584.1743595	3021584.69089213
53	20	0	0	90	36.1581920903955	36.241610738255	24	0.80005872040987	2	6	2	NaN	1	5	0.124892836072298	0	1	NaN	138	3	12	1	120	220	320	NaN	520	0.600246370770037	1	1	NaN	3021589.4749142	NaN	3021590.4583307	3021590.97483983
53	20	0	0	90	36.1581920903955	36.241610738255	11	0.366693580187857	2	10	3	NaN	2	5	0.124892836072298	0	1	NaN	139	3	13	1	120	220	320	NaN	520	0.347192417830229	2	1	NaN	3021592.3918535	NaN	3021593.3753019	3021593.89179158
53	20	0	0	90	36.1581920903955	36.241610738255	23	0.766722940392792	2	10	6	NaN	2	3	0.124892836072298	0	1	NaN	140	3	14	1	120	220	320	NaN	520	0.304040370509028	2	1	NaN	3021595.058704	NaN	3021596.0421691	3021596.55872103
53	20	0	0	90	36.1581920903955	36.241610738255	21	0.700051380358636	2	12	3	NaN	2	4	0.124892836072298	0	1	NaN	141	3	15	1	120	220	320	NaN	520	0.279440770391375	2	1	NaN	3021597.6756981	NaN	3021598.6591135	3021599.17565253
53	20	0	0	90	36.1581920903955	36.241610738255	7	0.233350460119545	2	8	3	NaN	2	4	0.124892836072298	0	1	NaN	142	3	16	1	120	220	320	NaN	520	0.206945670302957	2	1	NaN	3021600.2759489	NaN	3021601.2593598	3021601.77590293
53	20	0	0	90	36.1581920903955	36.241610738255	12	0.400029360204935	2	2	5	NaN	1	3	0.124892836072298	0	1	NaN	143	3	17	1	120	220	320	NaN	520	0.401978980284184	2	0	NaN	3021602.7929066	NaN	3021603.7762743	3021604.29281752
53	20	0	0	90	36.1581920903955	36.241610738255	17	0.566708260290325	2	2	2	NaN	1	3	0.124892836072298	0	1	NaN	144	3	18	1	120	220	320	NaN	520	0.342651465442032	1	1	NaN	3021605.6764607	NaN	3021606.6599197	3021607.17644463
53	20	0	0	90	36.1581920903955	36.241610738255	25	0.833394500426948	2	2	6	NaN	1	3	0.124892836072298	0	1	NaN	145	3	19	1	120	220	320	NaN	520	0.260162017773837	2	0	NaN	3021608.3267506	NaN	3021609.3101545	3021609.82669758
53	20	0	0	90	36.1581920903955	36.241610738255	13	0.433365140222013	2	6	5	NaN	1	3	0.124892836072298	0	1	NaN	146	3	20	1	120	220	320	NaN	520	0.333288923371583	1	1	NaN	3021610.8936361	NaN	3021611.877069	3021612.39362498
53	20	0	0	90	36.1581920903955	36.241610738255	13	0.433365140222013	2	5	3	NaN	1	5	0.124892836072298	0	1	NaN	147	3	21	1	120	220	320	NaN	520	4.37100272299722	1	1	NaN	3021613.5439386	NaN	3021614.5273366	3021615.04387598
53	20	0	0	90	36.1581920903955	36.241610738255	19	0.633379820324481	2	6	6	NaN	1	5	0.124892836072298	0	1	NaN	148	3	22	1	120	220	320	NaN	520	0.324340417515486	1	1	NaN	3021620.2945829	NaN	3021621.2779845	3021621.79453628
53	20	0	0	90	36.1581920903955	36.241610738255	24	0.80005872040987	2	2	3	NaN	1	4	0.124892836072298	0	1	NaN	149	3	23	1	120	220	320	NaN	520	0.458867975510657	1	1	NaN	3021622.9282856	NaN	3021623.9115893	3021624.42814042
53	20	0	0	90	36.1581920903955	36.241610738255	15	0.500036700256169	2	3	6	NaN	1	4	0.124892836072298	0	1	NaN	150	3	24	1	120	220	320	NaN	520	0.219974770676345	1	1	NaN	3021625.6951425	NaN	3021626.6785667	3021627.19507373
53	20	0	0	90	36.1581920903955	36.241610738255	20	0.666715600341559	2	4	1	NaN	1	4	0.124892836072298	0	1	NaN	151	3	25	1	120	220	320	NaN	520	0.286522270645946	1	1	NaN	3021628.2287192	NaN	3021629.2121153	3021629.72865023
53	20	0	0	90	36.1581920903955	36.241610738255	23	0.766722940392792	2	11	2	NaN	2	5	0.124892836072298	0	1	NaN	152	3	26	1	120	220	320	NaN	520	0.373859737999737	2	1	NaN	3021630.8289535	NaN	3021631.8123553	3021632.32891196
53	20	0	0	90	36.1581920903955	36.241610738255	14	0.466700920239091	2	2	2	NaN	1	3	0.124892836072298	0	1	NaN	153	3	27	1	120	220	320	NaN	520	6.38631167029962	1	1	NaN	3021633.512593	NaN	3021634.4959879	3021635.01251043
53	20	0	0	90	36.1581920903955	36.241610738255	14	0.466700920239091	2	6	3	NaN	1	5	0.124892836072298	0	1	NaN	154	3	28	1	120	220	320	NaN	520	0.245765022933483	1	1	NaN	3021642.2134116	NaN	3021643.1968189	3021643.71336178
53	20	0	0	90	36.1581920903955	36.241610738255	10	0.333357800170779	2	7	4	NaN	2	5	0.124892836072298	0	1	NaN	155	3	29	1	120	220	320	NaN	520	0.271551070734859	2	1	NaN	3021644.7636976	NaN	3021645.7470735	3021646.26361543
53	20	0	0	90	36.1581920903955	36.241610738255	16	0.533372480273247	2	3	5	NaN	1	5	0.124892836072298	0	1	NaN	156	3	30	1	120	220	320	NaN	520	2.71158967074007	1	1	NaN	3021647.347265	NaN	3021648.3306672	3021648.84719483
53	20	0	0	90	36.1581920903955	36.241610738255	18	0.600044040307403	2	10	1	NaN	2	3	0.124892836072298	0	1	NaN	157	3	31	1	120	220	320	NaN	520	0.445770670194179	2	1	NaN	3021652.3810839	NaN	3021653.3644873	3021653.88103283
53	20	0	0	90	36.1581920903955	36.241610738255	25	0.833394500426948	2	8	3	NaN	2	4	0.124892836072298	0	1	NaN	158	3	32	1	120	220	320	NaN	520	0.655823470558971	2	1	NaN	3021655.1313462	NaN	3021656.1147513	3021656.63129543
53	20	0	0	90	36.1581920903955	36.241610738255	25	0.833394500426948	2	8	2	NaN	2	5	0.124892836072298	0	1	NaN	159	3	33	1	120	220	320	NaN	520	2.79784347023815	2	1	NaN	3021658.1648571	NaN	3021659.1484534	3021659.66492713
53	20	0	0	90	36.1581920903955	36.241610738255	17	0.566708260290325	2	12	6	NaN	2	4	0.124892836072298	0	1	NaN	160	3	34	1	120	220	320	NaN	520	0.529289470519871	1	0	NaN	3021663.2655671	NaN	3021664.2488893	3021664.76544063
53	20	0	0	90	36.1581920903955	36.241610738255	22	0.733387160375714	2	3	2	NaN	1	4	0.124892836072298	0	1	NaN	161	3	35	1	120	220	320	NaN	520	0.85522172274068	2	0	NaN	3021666.1157671	NaN	3021667.0991486	3021667.61571068
53	20	0	0	90	36.1581920903955	36.241610738255	21	0.700051380358636	2	3	6	NaN	1	3	0.124892836072298	0	1	NaN	162	3	36	1	120	220	320	NaN	520	0.664488265756518	2	0	NaN	3021669.2827419	NaN	3021670.2661465	3021670.78269493
53	20	0	0	90	36.1581920903955	36.241610738255	24	0.80005872040987	2	12	3	NaN	2	5	0.124892836072298	0	1	NaN	163	3	37	1	120	220	320	NaN	520	3.7045287177898	2	1	NaN	3021672.2663484	NaN	3021673.2497783	3021673.76631078
53	20	0	0	90	36.1581920903955	36.241610738255	22	0.733387160375714	2	6	3	NaN	1	3	0.124892836072298	0	1	NaN	164	3	38	1	120	220	320	NaN	520	1.93526901816949	1	1	NaN	3021678.2836212	NaN	3021679.2670298	3021679.78357808
53	20	0	0	90	36.1581920903955	36.241610738255	24	0.80005872040987	2	11	3	NaN	2	5	0.124892836072298	0	1	NaN	165	3	39	1	120	220	320	NaN	520	0.628903470467776	2	1	NaN	3021682.5340659	NaN	3021683.5174524	3021684.03400613
53	20	0	0	90	36.1581920903955	36.241610738255	23	0.766722940392792	2	11	3	NaN	2	5	0.124892836072298	0	1	NaN	166	3	40	1	120	220	320	NaN	520	2.75054832315072	2	1	NaN	3021685.4842074	NaN	3021686.4677416	3021686.98428738
53	20	0	0	90	36.1581920903955	36.241610738255	0	0	1	11	6	NaN	2	4	0.124892836072298	0	1	NaN	167	3	41	1	110	210	310	NaN	510	0.315653917845339	2	1	NaN	3021690.5513774	NaN	3021691.5347938	3021692.05144178
53	20	0	0	90	36.1581920903955	36.241610738255	0	0	1	7	2	NaN	2	5	0.124892836072298	0	1	NaN	168	3	42	1	110	210	310	NaN	510	0.282054770272225	1	0	NaN	3021693.1850893	NaN	3021694.1684968	3021694.68504323
53	20	0	0	90	36.1581920903955	36.241610738255	20	0.666715600341559	2	11	6	NaN	2	3	0.124892836072298	0	1	NaN	169	3	43	1	120	220	320	NaN	520	0.297625070437789	2	1	NaN	3021695.7854522	NaN	3021696.7688595	3021697.28529393
53	20	0	0	90	36.1581920903955	36.241610738255	23	0.766722940392792	2	1	1	NaN	1	3	0.124892836072298	0	1	NaN	170	3	44	1	120	220	320	NaN	520	0.257012370508164	1	1	NaN	3021698.4022857	NaN	3021699.3856752	3021699.90222423
53	20	0	0	90	36.1581920903955	36.241610738255	0	0	1	8	6	NaN	2	4	0.124892836072298	0	1	NaN	171	3	45	1	110	210	310	NaN	510	0.345690418034792	1	0	NaN	3021700.9691823	NaN	3021701.9525902	3021702.46913208
53	20	0	0	90	36.1581920903955	36.241610738255	11	0.366693580187857	2	11	2	NaN	2	5	0.124892836072298	0	1	NaN	172	3	46	1	120	220	320	NaN	520	2.11883602291346	2	1	NaN	3021703.636114	NaN	3021704.619514	3021705.13606198
53	20	0	0	90	36.1581920903955	36.241610738255	15	0.500036700256169	2	10	1	NaN	2	5	0.124892836072298	0	1	NaN	173	3	47	1	120	220	320	NaN	520	0.477138770278543	2	1	NaN	3021708.0699251	NaN	3021709.0532873	3021709.56983233
53	20	0	0	90	36.1581920903955	36.241610738255	19	0.633379820324481	2	3	2	NaN	1	3	0.124892836072298	0	1	NaN	174	3	48	1	120	220	320	NaN	520	0.316884870175272	1	1	NaN	3021710.8701723	NaN	3021711.8535839	3021712.37011543
53	20	0	0	90	36.1581920903955	36.241610738255	17	0.566708260290325	2	10	3	NaN	2	5	0.124892836072298	0	1	NaN	175	3	49	1	120	220	320	NaN	520	1.74726367043331	2	1	NaN	3021713.5037561	NaN	3021714.4871569	3021715.00370463
53	20	0	0	90	36.1581920903955	36.241610738255	24	0.80005872040987	2	11	4	NaN	2	4	0.124892836072298	0	1	NaN	176	3	50	1	120	220	320	NaN	520	0.424274070188403	2	1	NaN	3021717.5708286	NaN	3021718.5542175	3021719.07076633
53	20	0	0	90	36.1581920903955	36.241610738255	15	0.500036700256169	2	12	6	NaN	2	5	0.124892836072298	0	1	NaN	177	3	51	1	120	220	320	NaN	520	0.274594070855528	2	1	NaN	3021720.3044326	NaN	3021721.2878373	3021721.80438033
53	20	0	0	90	36.1581920903955	36.241610738255	24	0.80005872040987	2	5	3	NaN	1	5	0.124892836072298	0	1	NaN	178	3	52	1	120	220	320	NaN	520	1.98722597071901	1	1	NaN	3021722.8880151	NaN	3021723.871458	3021724.38795613
53	20	0	0	90	36.1581920903955	36.241610738255	14	0.466700920239091	2	3	4	NaN	1	5	0.124892836072298	0	1	NaN	179	3	53	1	120	220	320	NaN	520	0.382561928126961	2	0	NaN	3021727.1884299	NaN	3021728.1718437	3021728.68838687
53	20	0	0	90	36.1581920903955	36.241610738255	7	0.233350460119545	2	9	5	NaN	2	4	0.124892836072298	0	1	NaN	180	3	54	1	120	220	320	NaN	520	0.226498113013804	2	1	NaN	3021729.8886898	NaN	3021730.8721003	3021731.38864159
53	20	0	0	90	36.1581920903955	36.241610738255	19	0.633379820324481	2	5	4	NaN	1	5	0.124892836072298	0	1	NaN	181	3	55	1	120	220	320	NaN	520	1.42076704697683	1	1	NaN	3021732.4222754	NaN	3021733.4056929	3021733.92225115
53	20	0	0	90	36.1581920903955	36.241610738255	8	0.266686240136623	2	11	6	NaN	2	4	0.124892836072298	0	1	NaN	182	3	56	1	120	220	320	NaN	520	0.239354208111763	2	1	NaN	3021736.1559762	NaN	3021737.1393912	3021737.65593349
53	20	0	0	90	36.1581920903955	36.241610738255	20	0.666715600341559	2	11	3	NaN	2	5	0.124892836072298	0	1	NaN	183	3	57	1	120	220	320	NaN	520	0.433148770593107	2	1	NaN	3021738.7062354	NaN	3021739.6896181	3021740.20617633
53	20	0	0	90	36.1581920903955	36.241610738255	8	0.266686240136623	2	9	1	NaN	2	4	0.124892836072298	0	1	NaN	184	3	58	1	120	220	320	NaN	520	1.85048307059333	1	0	NaN	3021741.4565075	NaN	3021742.4399105	3021742.95645643
53	20	0	0	90	36.1581920903955	36.241610738255	23	0.766722940392792	2	4	2	NaN	1	4	0.124892836072298	0	1	NaN	185	3	59	1	120	220	320	NaN	520	0.299637517891824	2	0	NaN	3021745.623578	NaN	3021746.6069964	3021747.12352228
53	20	0	0	90	36.1581920903955	36.241610738255	21	0.700051380358636	2	4	6	NaN	1	3	0.124892836072298	0	1	NaN	186	3	60	1	120	220	320	NaN	520	0.506620342843235	2	0	NaN	3021748.2404736	NaN	3021749.2239512	3021749.74046566
53	20	0	0	90	36.1581920903955	36.241610738255	0	0	1	6	6	NaN	1	4	0.124892836072298	0	1	NaN	187	3	61	1	110	210	310	NaN	510	1.98540841788054	1	1	NaN	3021751.0574599	NaN	3021752.0408593	3021752.55738968
53	20	0	0	90	36.1581920903955	36.241610738255	0	0	1	6	1	NaN	1	5	0.124892836072298	0	1	NaN	188	3	62	1	110	210	310	NaN	510	2.05313304252923	1	1	NaN	3021755.3578732	NaN	3021756.3412642	3021756.85783016
53	20	0	0	90	36.1581920903955	36.241610738255	12	0.400029360204935	2	3	5	NaN	1	5	0.124892836072298	0	1	NaN	189	3	63	1	120	220	320	NaN	520	0.43810537038371	2	0	NaN	3021759.7249594	NaN	3021760.7083753	3021761.22491153
53	20	0	0	90	36.1581920903955	36.241610738255	23	0.766722940392792	2	5	3	NaN	1	3	0.124892836072298	0	1	NaN	190	4	1	1	120	220	320	NaN	520	0.318467370700091	2	0	NaN	3021796.428595	NaN	3021797.4119965	3021797.92851573
53	20	0	0	90	36.1581920903955	36.241610738255	15	0.500036700256169	2	4	1	NaN	1	5	0.124892836072298	0	1	NaN	191	4	2	1	120	220	320	NaN	520	0.300939317792654	1	1	NaN	3021799.0621754	NaN	3021800.0455689	3021800.56211308
53	20	0	0	90	36.1581920903955	36.241610738255	25	0.833394500426948	2	9	1	NaN	2	5	0.124892836072298	0	1	NaN	192	4	3	1	120	220	320	NaN	520	0.225614723283798	2	1	NaN	3021801.7457617	NaN	3021802.72918	3021803.24571178
53	20	0	0	90	36.1581920903955	36.241610738255	21	0.700051380358636	2	12	1	NaN	2	5	0.124892836072298	0	1	NaN	193	4	4	1	120	220	320	NaN	520	0.147843170445412	2	1	NaN	3021804.2793406	NaN	3021805.2627431	3021805.77928923
53	20	0	0	90	36.1581920903955	36.241610738255	25	0.833394500426948	2	10	2	NaN	2	4	0.124892836072298	0	1	NaN	194	4	5	1	120	220	320	NaN	520	0.217112237587571	1	0	NaN	3021806.7462725	NaN	3021807.7296382	3021808.24620566
53	20	0	0	90	36.1581920903955	36.241610738255	14	0.466700920239091	2	4	5	NaN	1	4	0.124892836072298	0	1	NaN	195	4	6	1	120	220	320	NaN	520	0.347301470581442	1	1	NaN	3021809.2798419	NaN	3021810.2632415	3021810.77979253
53	20	0	0	90	36.1581920903955	36.241610738255	6	0.200014680102468	2	12	2	NaN	2	3	0.124892836072298	0	1	NaN	196	4	7	1	120	220	320	NaN	520	0.206727217882872	2	1	NaN	3021811.9967734	NaN	3021812.9801776	3021813.49672258
53	20	0	0	90	36.1581920903955	36.241610738255	7	0.233350460119545	2	12	6	NaN	2	5	0.124892836072298	0	1	NaN	197	4	8	1	120	220	320	NaN	520	0.281540870666504	2	1	NaN	3021814.5136825	NaN	3021815.4970912	3021816.01362903
53	20	0	0	90	36.1581920903955	36.241610738255	24	0.80005872040987	2	7	1	NaN	2	3	0.124892836072298	0	1	NaN	198	4	9	1	120	220	320	NaN	520	0.202041170559824	2	1	NaN	3021817.0972802	NaN	3021818.0806851	3021818.59722423
53	20	0	0	90	36.1581920903955	36.241610738255	0	0	1	3	6	NaN	1	5	0.124892836072298	0	1	NaN	199	4	10	1	110	210	310	NaN	510	2.09306101780385	2	0	NaN	3021819.6141889	NaN	3021820.5975751	3021821.11414008
53	20	0	0	90	36.1581920903955	36.241610738255	10	0.333357800170779	2	12	6	NaN	2	3	0.124892836072298	0	1	NaN	200	4	11	1	120	220	320	NaN	520	0.484636017587036	2	1	NaN	3021824.0145356	NaN	3021824.9980275	3021825.51456198
53	20	0	0	90	36.1581920903955	36.241610738255	8	0.266686240136623	2	2	4	NaN	1	3	0.124892836072298	0	1	NaN	201	4	12	1	120	220	320	NaN	520	0.300222580321133	2	0	NaN	3021826.8148998	NaN	3021827.7982993	3021828.31484962
53	20	0	0	90	36.1581920903955	36.241610738255	11	0.366693580187857	2	9	6	NaN	2	4	0.124892836072298	0	1	NaN	202	4	13	1	120	220	320	NaN	520	0.179765917826444	2	1	NaN	3021829.4318367	NaN	3021830.4152242	3021830.93176478
53	20	0	0	90	36.1581920903955	36.241610738255	18	0.600044040307403	2	12	4	NaN	2	3	0.124892836072298	0	1	NaN	203	4	14	1	120	220	320	NaN	520	0.631079617887735	1	0	NaN	3021831.9320695	NaN	3021832.9154605	3021833.43201008
53	20	0	0	90	36.1581920903955	36.241610738255	18	0.600044040307403	2	11	5	NaN	2	5	0.124892836072298	0	1	NaN	204	4	15	1	120	220	320	NaN	520	0.249440870713443	2	1	NaN	3021834.8656939	NaN	3021835.8490841	3021836.36562743
53	20	0	0	90	36.1581920903955	36.241610738255	16	0.533372480273247	2	4	2	NaN	1	3	0.124892836072298	0	1	NaN	205	4	16	1	120	220	320	NaN	520	2.61057521775365	1	1	NaN	3021837.4326122	NaN	3021838.4160043	3021838.93255068
53	20	0	0	90	36.1581920903955	36.241610738255	16	0.533372480273247	2	8	4	NaN	2	3	0.124892836072298	0	1	NaN	206	4	17	1	120	220	320	NaN	520	0.277460318058729	2	1	NaN	3021842.3497671	NaN	3021843.3331552	3021843.84969888
53	20	0	0	90	36.1581920903955	36.241610738255	22	0.733387160375714	2	8	2	NaN	2	4	0.124892836072298	0	1	NaN	207	4	18	1	120	220	320	NaN	520	0.285369523335248	2	1	NaN	3021844.9500027	NaN	3021845.9333285	3021846.44996018
53	20	0	0	90	36.1581920903955	36.241610738255	16	0.533372480273247	2	12	2	NaN	2	5	0.124892836072298	0	1	NaN	208	4	19	1	120	220	320	NaN	520	0.516899070702493	2	1	NaN	3021847.5501435	NaN	3021848.5336572	3021849.05021483
53	20	0	0	90	36.1581920903955	36.241610738255	19	0.633379820324481	2	11	5	NaN	2	5	0.124892836072298	0	1	NaN	209	4	20	1	120	220	320	NaN	520	0.203296227846295	2	1	NaN	3021850.3838908	NaN	3021851.3673081	3021851.88382937
53	20	0	0	90	36.1581920903955	36.241610738255	16	0.533372480273247	2	11	2	NaN	2	4	0.124892836072298	0	1	NaN	210	4	21	1	120	220	320	NaN	520	0.334772570524365	2	1	NaN	3021852.9007247	NaN	3021853.8842002	3021854.40075613
53	20	0	0	90	36.1581920903955	36.241610738255	9	0.300022020153701	2	6	2	NaN	1	5	0.124892836072298	0	1	NaN	211	4	22	1	120	220	320	NaN	520	2.78015892300755	1	1	NaN	3021855.550921	NaN	3021856.5344503	3021857.05100588
53	20	0	0	90	36.1581920903955	36.241610738255	25	0.833394500426948	2	4	1	NaN	1	5	0.124892836072298	0	1	NaN	212	4	23	1	120	220	320	NaN	520	0.6965615702793	1	1	NaN	3021860.6348758	NaN	3021861.6182869	3021862.13483433
53	20	0	0	90	36.1581920903955	36.241610738255	8	0.266686240136623	2	11	5	NaN	2	3	0.124892836072298	0	1	NaN	213	4	24	1	120	220	320	NaN	520	0.159776070620865	2	1	NaN	3021863.6517217	NaN	3021864.635325	3021865.15178983
53	20	0	0	90	36.1581920903955	36.241610738255	16	0.533372480273247	2	6	1	NaN	1	3	0.124892836072298	0	1	NaN	214	4	25	1	120	220	320	NaN	520	0.236543823033571	1	1	NaN	3021866.1187676	NaN	3021867.1021661	3021867.61872308
53	20	0	0	90	36.1581920903955	36.241610738255	24	0.80005872040987	2	3	5	NaN	1	5	0.124892836072298	0	1	NaN	215	4	26	1	120	220	320	NaN	520	0.230064417701215	1	1	NaN	3021868.6690153	NaN	3021869.6524143	3021870.16895488
53	20	0	0	90	36.1581920903955	36.241610738255	6	0.200014680102468	2	5	4	NaN	1	4	0.124892836072298	0	1	NaN	216	4	27	1	120	220	320	NaN	520	0.296303670387715	1	1	NaN	3021871.2192675	NaN	3021872.2026799	3021872.71920843
53	20	0	0	90	36.1581920903955	36.241610738255	24	0.80005872040987	2	3	3	NaN	1	4	0.124892836072298	0	1	NaN	217	4	28	1	120	220	320	NaN	520	4.20448187040165	1	1	NaN	3021873.9028604	NaN	3021874.8862736	3021875.40280873
53	20	0	0	90	36.1581920903955	36.241610738255	22	0.733387160375714	2	8	1	NaN	2	4	0.124892836072298	0	1	NaN	218	4	29	1	120	220	320	NaN	520	0.327143270522356	1	0	NaN	3021880.4201715	NaN	3021881.4035679	3021881.92011553
53	20	0	0	90	36.1581920903955	36.241610738255	0	0	1	5	6	NaN	1	5	0.124892836072298	0	1	NaN	219	4	30	1	110	210	310	NaN	510	0.45373273268342	2	0	NaN	3021883.053611	NaN	3021884.0371513	3021884.55370437
53	20	0	0	90	36.1581920903955	36.241610738255	15	0.500036700256169	2	11	3	NaN	2	5	0.124892836072298	0	1	NaN	220	4	31	1	120	220	320	NaN	520	0.694485770538449	2	1	NaN	3021885.8206215	NaN	3021886.8041247	3021887.32064373
53	20	0	0	90	36.1581920903955	36.241610738255	19	0.633379820324481	2	11	5	NaN	2	4	0.124892836072298	0	1	NaN	221	4	32	1	120	220	320	NaN	520	1.20584337040782	1	0	NaN	3021888.8376515	NaN	3021889.8210545	3021890.33759913
53	20	0	0	90	36.1581920903955	36.241610738255	6	0.200014680102468	2	7	3	NaN	2	3	0.124892836072298	0	1	NaN	222	4	33	1	120	220	320	NaN	520	2.91294162301347	2	1	NaN	3021892.3546749	NaN	3021893.338081	3021893.85461988
53	20	0	0	90	36.1581920903955	36.241610738255	8	0.266686240136623	2	3	1	NaN	1	3	0.124892836072298	0	1	NaN	223	4	34	1	120	220	320	NaN	520	1.61470887064934	2	0	NaN	3021897.5885243	NaN	3021898.5718824	3021899.08845903
53	20	0	0	90	36.1581920903955	36.241610738255	14	0.466700920239091	2	4	5	NaN	1	3	0.124892836072298	0	1	NaN	224	4	35	1	120	220	320	NaN	520	0.40093067009002	1	1	NaN	3021901.5222406	NaN	3021902.5057315	3021903.02218643
53	20	0	0	90	36.1581920903955	36.241610738255	7	0.233350460119545	2	11	1	NaN	2	3	0.124892836072298	0	1	NaN	225	4	36	1	120	220	320	NaN	520	0.292093023192137	2	1	NaN	3021904.2391766	NaN	3021905.2225614	3021905.73911898
53	20	0	0	90	36.1581920903955	36.241610738255	23	0.766722940392792	2	2	1	NaN	1	4	0.124892836072298	0	1	NaN	226	4	37	1	120	220	320	NaN	520	1.35588471777737	1	1	NaN	3021906.8393045	NaN	3021907.822859	3021908.33936808
53	20	0	0	90	36.1581920903955	36.241610738255	16	0.533372480273247	2	2	4	NaN	1	5	0.124892836072298	0	1	NaN	227	4	38	1	120	220	320	NaN	520	0.712733723223209	2	0	NaN	3021910.5064641	NaN	3021911.4898534	3021912.00640898
53	20	0	0	90	36.1581920903955	36.241610738255	24	0.80005872040987	2	6	3	NaN	1	4	0.124892836072298	0	1	NaN	228	4	39	1	120	220	320	NaN	520	2.15126467030495	2	0	NaN	3021913.5400842	NaN	3021914.5235017	3021915.04003433
53	20	0	0	90	36.1581920903955	36.241610738255	23	0.766722940392792	2	5	2	NaN	1	4	0.124892836072298	0	1	NaN	229	4	40	1	120	220	320	NaN	520	0.476084522902966	1	1	NaN	3021918.0071822	NaN	3021918.990583	3021919.50714718
53	20	0	0	90	36.1581920903955	36.241610738255	25	0.833394500426948	2	1	2	NaN	1	4	0.124892836072298	0	1	NaN	230	4	41	1	120	220	320	NaN	520	0.420442070346326	1	1	NaN	3021920.7907911	NaN	3021921.7742186	3021922.29074563
53	20	0	0	90	36.1581920903955	36.241610738255	6	0.200014680102468	2	8	3	NaN	2	3	0.124892836072298	0	1	NaN	231	4	42	1	120	220	320	NaN	520	2.48683137027547	2	1	NaN	3021923.5242804	NaN	3021924.5077979	3021925.02434583
53	20	0	0	90	36.1581920903955	36.241610738255	23	0.766722940392792	2	8	2	NaN	2	4	0.124892836072298	0	1	NaN	232	4	43	1	120	220	320	NaN	520	2.37427077023312	2	1	NaN	3021928.3248925	NaN	3021929.3082842	3021929.82481333
53	20	0	0	90	36.1581920903955	36.241610738255	15	0.500036700256169	2	1	1	NaN	1	4	0.124892836072298	0	1	NaN	233	4	44	1	120	220	320	NaN	520	0.634938823059201	2	0	NaN	3021933.008666	NaN	3021933.992059	3021934.50861918
53	20	0	0	90	36.1581920903955	36.241610738255	23	0.766722940392792	2	1	3	NaN	1	3	0.124892836072298	0	1	NaN	234	4	45	1	120	220	320	NaN	520	0.385756570380181	1	1	NaN	3021936.2255698	NaN	3021937.2090576	3021937.72558953
53	20	0	0	90	36.1581920903955	36.241610738255	10	0.333357800170779	2	10	5	NaN	2	5	0.124892836072298	0	1	NaN	235	4	46	1	120	220	320	NaN	520	0.229729170445353	2	1	NaN	3021938.9259112	NaN	3021939.9093558	3021940.42586313
53	20	0	0	90	36.1581920903955	36.241610738255	17	0.566708260290325	2	7	4	NaN	2	5	0.124892836072298	0	1	NaN	236	4	47	1	120	220	320	NaN	520	0.191559223458171	2	1	NaN	3021941.4593586	NaN	3021942.4429034	3021942.95944128
53	20	0	0	90	36.1581920903955	36.241610738255	24	0.80005872040987	2	4	2	NaN	1	4	0.124892836072298	0	1	NaN	237	4	48	1	120	220	320	NaN	520	0.307537370361388	1	1	NaN	3021943.9598251	NaN	3021944.9431389	3021945.45968323
53	20	0	0	90	36.1581920903955	36.241610738255	6	0.200014680102468	2	9	2	NaN	2	5	0.124892836072298	0	1	NaN	238	4	49	1	120	220	320	NaN	520	2.65789987053722	2	1	NaN	3021946.5933724	NaN	3021947.57673	3021948.09327703
53	20	0	0	90	36.1581920903955	36.241610738255	6	0.200014680102468	2	9	4	NaN	2	5	0.124892836072298	0	1	NaN	239	4	50	1	120	220	320	NaN	520	0.123296870384365	2	1	NaN	3021951.5604869	NaN	3021952.5439019	3021953.06044953
53	20	0	0	90	36.1581920903955	36.241610738255	8	0.266686240136623	2	5	4	NaN	1	3	0.124892836072298	0	1	NaN	240	4	51	1	120	220	320	NaN	520	0.369493270292878	1	1	NaN	3021953.9940636	NaN	3021954.9774697	3021955.49401263
53	20	0	0	90	36.1581920903955	36.241610738255	19	0.633379820324481	2	6	5	NaN	1	3	0.124892836072298	0	1	NaN	241	4	52	1	120	220	320	NaN	520	0.164477718062699	1	1	NaN	3021956.9109087	NaN	3021957.8944242	3021958.41095548
53	20	0	0	90	36.1581920903955	36.241610738255	16	0.533372480273247	2	5	1	NaN	1	4	0.124892836072298	0	1	NaN	242	4	53	1	120	220	320	NaN	520	0.296755270566791	2	0	NaN	3021959.3945823	NaN	3021960.3780054	3021960.89454083
53	20	0	0	90	36.1581920903955	36.241610738255	11	0.366693580187857	2	1	1	NaN	1	5	0.124892836072298	0	1	NaN	243	4	54	1	120	220	320	NaN	520	0.447447270620614	1	1	NaN	3021962.0115347	NaN	3021962.9949177	3021963.51145803
53	20	0	0	90	36.1581920903955	36.241610738255	10	0.333357800170779	2	8	6	NaN	2	5	0.124892836072298	0	1	NaN	244	4	55	1	120	220	320	NaN	520	0.177934370469302	2	1	NaN	3021964.7617848	NaN	3021965.7451981	3021966.26172813
53	20	0	0	90	36.1581920903955	36.241610738255	24	0.80005872040987	2	8	4	NaN	2	5	0.124892836072298	0	1	NaN	245	4	56	1	120	220	320	NaN	520	1.28520547039807	1	0	NaN	3021967.2619758	NaN	3021968.2454294	3021968.76198173
53	20	0	0	90	36.1581920903955	36.241610738255	7	0.233350460119545	2	5	3	NaN	1	4	0.124892836072298	0	1	NaN	246	4	57	1	120	220	320	NaN	520	0.18909417046234	2	0	NaN	3021970.8623936	NaN	3021971.8457877	3021972.36233403
53	20	0	0	90	36.1581920903955	36.241610738255	13	0.433365140222013	2	6	5	NaN	1	3	0.124892836072298	0	1	NaN	247	4	58	1	120	220	320	NaN	520	0.784680970478803	2	0	NaN	3021973.3627163	NaN	3021974.3460239	3021974.86257363
53	20	0	0	90	36.1581920903955	36.241610738255	20	0.666715600341559	2	10	1	NaN	2	4	0.124892836072298	0	1	NaN	248	4	59	1	120	220	320	NaN	520	0.236551970709115	1	0	NaN	3021976.462946	NaN	3021977.4463233	3021977.96287733
53	20	0	0	90	36.1581920903955	36.241610738255	11	0.366693580187857	2	12	6	NaN	2	3	0.124892836072298	0	1	NaN	249	4	60	1	120	220	320	NaN	520	0.302865513134748	2	1	NaN	3021979.3965596	NaN	3021980.3799454	3021980.89649679
53	20	0	0	90	36.1581920903955	36.241610738255	9	0.300022020153701	2	3	5	NaN	1	3	0.124892836072298	0	1	NaN	250	4	61	1	120	220	320	NaN	520	1.48583077033982	1	1	NaN	3021982.0134763	NaN	3021982.9968932	3021983.51342713
53	20	0	0	90	36.1581920903955	36.241610738255	18	0.600044040307403	2	4	3	NaN	1	3	0.124892836072298	0	1	NaN	251	4	62	1	120	220	320	NaN	520	0.51742652291432	2	0	NaN	3021985.8138523	NaN	3021986.7972636	3021987.31380798
53	20	0	0	90	36.1581920903955	36.241610738255	19	0.633379820324481	2	10	2	NaN	2	5	0.124892836072298	0	1	NaN	252	4	63	1	120	220	320	NaN	520	0.292005870491266	2	1	NaN	3021988.647487	NaN	3021989.6308753	3021990.14741653
53	20	0	0	90	36.1581920903955	36.241610738255	11	0.366693580187857	2	7	2	NaN	2	3	0.124892836072298	0	1	NaN	253	5	1	1	120	220	320	NaN	520	0.264016499742866	2	1	NaN	3022023.4674277	NaN	3022024.4509524	3022024.9675217
53	20	0	0	90	36.1581920903955	36.241610738255	25	0.833394500426948	2	3	5	NaN	1	3	0.124892836072298	0	1	NaN	254	5	2	1	120	220	320	NaN	520	0.304630032740533	1	1	NaN	3022026.0511143	NaN	3022027.0345723	3022027.55109067
53	20	0	0	90	36.1581920903955	36.241610738255	12	0.400029360204935	2	12	3	NaN	2	4	0.124892836072298	0	1	NaN	255	5	3	1	120	220	320	NaN	520	0.231462917756289	2	1	NaN	3022028.8679592	NaN	3022029.851475	3022030.36802668
53	20	0	0	90	36.1581920903955	36.241610738255	21	0.700051380358636	2	5	3	NaN	1	3	0.124892836072298	0	1	NaN	256	5	4	1	120	220	320	NaN	520	0.129279823042452	2	0	NaN	3022031.4182066	NaN	3022032.4017578	3022032.91828988
53	20	0	0	90	36.1581920903955	36.241610738255	12	0.400029360204935	2	10	6	NaN	2	3	0.124892836072298	0	1	NaN	257	5	5	1	120	220	320	NaN	520	0.118738470599055	2	1	NaN	3022033.8684771	NaN	3022034.8520363	3022035.36852763
53	20	0	0	90	36.1581920903955	36.241610738255	24	0.80005872040987	2	2	1	NaN	1	4	0.124892836072298	0	1	NaN	258	5	6	1	120	220	320	NaN	520	0.421228418126702	2	0	NaN	3022036.3022375	NaN	3022037.2855632	3022037.80210138
53	20	0	0	90	36.1581920903955	36.241610738255	9	0.300022020153701	2	5	1	NaN	1	3	0.124892836072298	0	1	NaN	259	5	7	1	120	220	320	NaN	520	0.2158113704063	1	1	NaN	3022039.2357705	NaN	3022040.2191931	3022040.73572043
53	20	0	0	90	36.1581920903955	36.241610738255	22	0.733387160375714	2	2	5	NaN	1	3	0.124892836072298	0	1	NaN	260	5	8	1	120	220	320	NaN	520	0.202172970864922	1	1	NaN	3022041.7693484	NaN	3022042.7527637	3022043.26929543
53	20	0	0	90	36.1581920903955	36.241610738255	18	0.600044040307403	2	5	2	NaN	1	5	0.124892836072298	0	1	NaN	261	5	9	1	120	220	320	NaN	520	0.237530075479299	1	1	NaN	3022044.2862801	NaN	3022045.2696935	3022045.78622232
53	20	0	0	90	36.1581920903955	36.241610738255	25	0.833394500426948	2	2	5	NaN	1	5	0.124892836072298	0	1	NaN	262	5	10	1	120	220	320	NaN	520	4.06299217045307	1	1	NaN	3022046.8365086	NaN	3022047.8199568	3022048.33646723
53	20	0	0	90	36.1581920903955	36.241610738255	9	0.300022020153701	2	5	2	NaN	1	5	0.124892836072298	0	1	NaN	263	5	11	1	120	220	320	NaN	520	0.319670470431447	1	1	NaN	3022053.2037964	NaN	3022054.187263	3022054.70376343
53	20	0	0	90	36.1581920903955	36.241610738255	19	0.633379820324481	2	2	3	NaN	1	4	0.124892836072298	0	1	NaN	264	5	12	1	120	220	320	NaN	520	0.366220913361758	1	1	NaN	3022055.8373961	NaN	3022056.8208048	3022057.33734209
53	20	0	0	90	36.1581920903955	36.241610738255	7	0.233350460119545	2	4	3	NaN	1	4	0.124892836072298	0	1	NaN	265	5	13	1	120	220	320	NaN	520	0.202216170262545	1	1	NaN	3022058.5209917	NaN	3022059.5043901	3022060.02094243
53	20	0	0	90	36.1581920903955	36.241610738255	22	0.733387160375714	2	10	4	NaN	2	3	0.124892836072298	0	1	NaN	266	5	14	1	120	220	320	NaN	520	0.30964088998735	2	1	NaN	3022061.0379204	NaN	3022062.021316	3022062.53786011
53	20	0	0	90	36.1581920903955	36.241610738255	17	0.566708260290325	2	6	4	NaN	1	3	0.124892836072298	0	1	NaN	267	5	15	1	120	220	320	NaN	520	0.204952722880989	1	1	NaN	3022063.6548288	NaN	3022064.6382459	3022065.15478778
53	20	0	0	90	36.1581920903955	36.241610738255	19	0.633379820324481	2	9	6	NaN	2	3	0.124892836072298	0	1	NaN	268	5	16	1	120	220	320	NaN	520	0.279674170538783	2	1	NaN	3022066.1716541	NaN	3022067.1551609	3022067.67170693
53	20	0	0	90	36.1581920903955	36.241610738255	12	0.400029360204935	2	4	2	NaN	1	5	0.124892836072298	0	1	NaN	269	5	17	1	120	220	320	NaN	520	5.10342212300748	2	0	NaN	3022068.7720185	NaN	3022069.7554174	3022070.27196068
53	20	0	0	90	36.1581920903955	36.241610738255	8	0.266686240136623	2	1	6	NaN	1	4	0.124892836072298	0	1	NaN	270	5	18	1	120	220	320	NaN	520	1.03014337038621	1	1	NaN	3022076.1893981	NaN	3022077.1728088	3022077.68934923
53	20	0	0	90	36.1581920903955	36.241610738255	15	0.500036700256169	2	8	4	NaN	2	5	0.124892836072298	0	1	NaN	271	5	19	1	120	220	320	NaN	520	0.0738876177929342	2	1	NaN	3022080.0897769	NaN	3022081.0731877	3022081.58973708
53	20	0	0	90	36.1581920903955	36.241610738255	25	0.833394500426948	2	11	6	NaN	2	3	0.124892836072298	0	1	NaN	272	5	20	1	120	220	320	NaN	520	3.2288188659586	2	1	NaN	3022082.6067787	NaN	3022083.5900884	3022084.10664943
53	20	0	0	90	36.1581920903955	36.241610738255	11	0.366693580187857	2	4	6	NaN	1	4	0.124892836072298	0	1	NaN	273	5	21	1	120	220	320	NaN	520	0.502873123157769	2	0	NaN	3022088.1404307	NaN	3022089.1240266	3022089.64052978
53	20	0	0	90	36.1581920903955	36.241610738255	24	0.80005872040987	2	8	5	NaN	2	4	0.124892836072298	0	1	NaN	274	5	22	1	120	220	320	NaN	520	2.06935837026685	2	1	NaN	3022091.374308	NaN	3022092.3577275	3022092.87417683
53	20	0	0	90	36.1581920903955	36.241610738255	21	0.700051380358636	2	11	4	NaN	2	4	0.124892836072298	0	1	NaN	275	5	23	1	120	220	320	NaN	520	0.197855690028518	2	1	NaN	3022095.7579932	NaN	3022096.7414049	3022097.25795171
53	20	0	0	90	36.1581920903955	36.241610738255	18	0.600044040307403	2	8	3	NaN	2	4	0.124892836072298	0	1	NaN	276	5	24	1	120	220	320	NaN	520	1.92115716543049	2	1	NaN	3022098.2582229	NaN	3022099.2416535	3022099.75818773
53	20	0	0	90	36.1581920903955	36.241610738255	10	0.333357800170779	2	6	1	NaN	1	5	0.124892836072298	0	1	NaN	277	5	25	1	120	220	320	NaN	520	0.455510017927736	1	1	NaN	3022102.4919843	NaN	3022103.4754072	3022103.99193338
53	20	0	0	90	36.1581920903955	36.241610738255	20	0.666715600341559	2	5	4	NaN	1	3	0.124892836072298	0	1	NaN	278	5	26	1	120	220	320	NaN	520	0.360712570138276	2	0	NaN	3022105.258822	NaN	3022106.2423141	3022106.75887393
53	20	0	0	90	36.1581920903955	36.241610738255	17	0.566708260290325	2	9	5	NaN	2	3	0.124892836072298	0	1	NaN	279	5	27	1	120	220	320	NaN	520	0.381027370225638	2	1	NaN	3022107.9425252	NaN	3022108.9259339	3022109.44246813
53	20	0	0	90	36.1581920903955	36.241610738255	15	0.500036700256169	2	12	1	NaN	2	3	0.124892836072298	0	1	NaN	280	5	28	1	120	220	320	NaN	520	0.224920123349875	1	0	NaN	3022110.6427949	NaN	3022111.6261709	3022112.14275988
53	20	0	0	90	36.1581920903955	36.241610738255	17	0.566708260290325	2	1	3	NaN	1	5	0.124892836072298	0	1	NaN	281	5	29	1	120	220	320	NaN	520	0.307440417818725	1	1	NaN	3022113.1763607	NaN	3022114.1597712	3022114.67631948
53	20	0	0	90	36.1581920903955	36.241610738255	10	0.333357800170779	2	9	5	NaN	2	3	0.124892836072298	0	1	NaN	282	5	30	1	120	220	320	NaN	520	0.298611070495099	2	1	NaN	3022115.7931919	NaN	3022116.776684	3022117.29324453
53	20	0	0	90	36.1581920903955	36.241610738255	25	0.833394500426948	2	7	5	NaN	2	5	0.124892836072298	0	1	NaN	283	5	31	1	120	220	320	NaN	520	2.8575246706605	1	0	NaN	3022118.4102176	NaN	3022119.3936299	3022119.91016213
53	20	0	0	90	36.1581920903955	36.241610738255	18	0.600044040307403	2	1	3	NaN	1	3	0.124892836072298	0	1	NaN	284	5	32	1	120	220	320	NaN	520	0.154321070294827	1	1	NaN	3022123.5774177	NaN	3022124.5607963	3022125.07733413
53	20	0	0	90	36.1581920903955	36.241610738255	22	0.733387160375714	2	5	1	NaN	1	4	0.124892836072298	0	1	NaN	285	5	33	1	120	220	320	NaN	520	3.49533887533471	2	0	NaN	3022126.0443033	NaN	3022127.0277346	3022127.54425492
53	20	0	0	90	36.1581920903955	36.241610738255	18	0.600044040307403	2	9	3	NaN	2	3	0.124892836072298	0	1	NaN	286	5	34	1	120	220	320	NaN	520	0.311131070367992	2	1	NaN	3022131.8448756	NaN	3022132.8282822	3022133.34482013
53	20	0	0	90	36.1581920903955	36.241610738255	17	0.566708260290325	2	4	1	NaN	1	5	0.124892836072298	0	1	NaN	287	5	35	1	120	220	320	NaN	520	0.23765721777454	1	1	NaN	3022134.4617845	NaN	3022135.4452311	3022135.96174178
53	20	0	0	90	36.1581920903955	36.241610738255	24	0.80005872040987	2	4	1	NaN	1	5	0.124892836072298	0	1	NaN	288	5	36	1	120	220	320	NaN	520	0.255479917861521	1	1	NaN	3022137.012045	NaN	3022137.995461	3022138.51199048
53	20	0	0	90	36.1581920903955	36.241610738255	18	0.600044040307403	2	9	1	NaN	2	4	0.124892836072298	0	1	NaN	289	5	37	1	120	220	320	NaN	520	0.144750770647079	2	1	NaN	3022139.578975	NaN	3022140.5623672	3022141.07890953
53	20	0	0	90	36.1581920903955	36.241610738255	22	0.733387160375714	2	7	3	NaN	2	3	0.124892836072298	0	1	NaN	290	5	38	1	120	220	320	NaN	520	0.453815123066306	2	1	NaN	3022142.0459084	NaN	3022143.0292839	3022143.54581748
53	20	0	0	90	36.1581920903955	36.241610738255	7	0.233350460119545	2	1	1	NaN	1	3	0.124892836072298	0	1	NaN	291	5	39	1	120	220	320	NaN	520	0.215128470677882	1	1	NaN	3022144.8128066	NaN	3022145.7962133	3022146.31276363
53	20	0	0	90	36.1581920903955	36.241610738255	24	0.80005872040987	2	1	3	NaN	1	3	0.124892836072298	0	1	NaN	292	5	40	1	120	220	320	NaN	520	0.265326470602304	1	1	NaN	3022147.3462668	NaN	3022148.3297969	3022148.84633753
53	20	0	0	90	36.1581920903955	36.241610738255	23	0.766722940392792	2	7	1	NaN	2	4	0.124892836072298	0	1	NaN	293	5	41	1	120	220	320	NaN	520	0.249571917578578	2	1	NaN	3022149.9299783	NaN	3022150.9133864	3022151.42992428
53	20	0	0	90	36.1581920903955	36.241610738255	8	0.266686240136623	2	8	5	NaN	2	3	0.124892836072298	0	1	NaN	294	5	42	1	120	220	320	NaN	520	0.243138303048909	1	0	NaN	3022152.4969423	NaN	3022153.4803019	3022153.9968417
53	20	0	0	90	36.1581920903955	36.241610738255	16	0.533372480273247	2	1	1	NaN	1	3	0.124892836072298	0	1	NaN	295	5	43	1	120	220	320	NaN	520	4.85180882317945	1	1	NaN	3022155.0638184	NaN	3022156.0472146	3022156.56376628
53	20	0	0	90	36.1581920903955	36.241610738255	19	0.633379820324481	2	4	4	NaN	1	4	0.124892836072298	0	1	NaN	296	5	44	1	120	220	320	NaN	520	1.44474007049575	2	0	NaN	3022162.2312031	NaN	3022163.2145867	3022163.73113273
53	20	0	0	90	36.1581920903955	36.241610738255	8	0.266686240136623	2	3	5	NaN	1	5	0.124892836072298	0	1	NaN	297	5	45	1	120	220	320	NaN	520	0.189502717927098	1	1	NaN	3022165.998237	NaN	3022166.9816223	3022167.49817998
53	20	0	0	90	36.1581920903955	36.241610738255	7	0.233350460119545	2	2	3	NaN	1	4	0.124892836072298	0	1	NaN	298	5	46	1	120	220	320	NaN	520	0.241066570393741	1	1	NaN	3022168.4984807	NaN	3022169.4818828	3022169.99841663
53	20	0	0	90	36.1581920903955	36.241610738255	12	0.400029360204935	2	6	4	NaN	1	3	0.124892836072298	0	1	NaN	299	5	47	1	120	220	320	NaN	520	0.227163823321462	1	1	NaN	3022171.0485961	NaN	3022172.0321335	3022172.54867608
53	20	0	0	90	36.1581920903955	36.241610738255	15	0.500036700256169	2	11	1	NaN	2	5	0.124892836072298	0	1	NaN	300	5	48	1	120	220	320	NaN	520	0.205350370611995	1	0	NaN	3022173.5822588	NaN	3022174.5657359	3022175.08225703
53	20	0	0	90	36.1581920903955	36.241610738255	7	0.233350460119545	2	10	1	NaN	2	4	0.124892836072298	0	1	NaN	301	5	49	1	120	220	320	NaN	520	7.52047667047009	2	1	NaN	3022176.0990941	NaN	3022177.0826247	3022177.59917433
53	20	0	0	90	36.1581920903955	36.241610738255	9	0.300022020153701	2	8	4	NaN	2	5	0.124892836072298	0	1	NaN	302	5	50	1	120	220	320	NaN	520	0.310502417851239	2	1	NaN	3022185.9335456	NaN	3022186.9169239	3022187.43346608
53	20	0	0	90	36.1581920903955	36.241610738255	11	0.366693580187857	2	11	6	NaN	2	5	0.124892836072298	0	1	NaN	303	5	51	1	120	220	320	NaN	520	0.429447670467198	2	1	NaN	3022188.5504453	NaN	3022189.5338571	3022190.05039403
53	20	0	0	90	36.1581920903955	36.241610738255	8	0.266686240136623	2	6	4	NaN	1	4	0.124892836072298	0	1	NaN	304	5	52	1	120	220	320	NaN	520	0.295842923223972	1	1	NaN	3022191.2840438	NaN	3022192.2674832	3022192.78399608
53	20	0	0	90	36.1581920903955	36.241610738255	24	0.80005872040987	2	12	5	NaN	2	5	0.124892836072298	0	1	NaN	305	5	53	1	120	220	320	NaN	520	0.175481617916375	2	1	NaN	3022193.8842955	NaN	3022194.867707	3022195.38425108
53	20	0	0	90	36.1581920903955	36.241610738255	7	0.233350460119545	2	3	6	NaN	1	4	0.124892836072298	0	1	NaN	306	5	54	1	120	220	320	NaN	520	0.500094170216471	2	0	NaN	3022196.3677543	NaN	3022197.3513126	3022197.86782043
53	20	0	0	90	36.1581920903955	36.241610738255	6	0.200014680102468	2	3	4	NaN	1	4	0.124892836072298	0	1	NaN	307	5	55	1	120	220	320	NaN	520	0.346609227824956	1	1	NaN	3022199.184709	NaN	3022200.1682232	3022200.68476787
53	20	0	0	90	36.1581920903955	36.241610738255	21	0.700051380358636	2	8	6	NaN	2	3	0.124892836072298	0	1	NaN	308	5	56	1	120	220	320	NaN	520	0.216239117551595	1	0	NaN	3022201.8518275	NaN	3022202.8351583	3022203.35169408
53	20	0	0	90	36.1581920903955	36.241610738255	14	0.466700920239091	2	10	5	NaN	2	4	0.124892836072298	0	1	NaN	309	5	57	1	120	220	320	NaN	520	3.11420011799783	2	1	NaN	3022204.385321	NaN	3022205.3687494	3022205.88527538
53	20	0	0	90	36.1581920903955	36.241610738255	11	0.366693580187857	2	6	3	NaN	1	5	0.124892836072298	0	1	NaN	310	5	58	1	120	220	320	NaN	520	0.272807170636952	2	0	NaN	3022209.8192051	NaN	3022210.80259	3022211.31914713
53	20	0	0	90	36.1581920903955	36.241610738255	25	0.833394500426948	2	4	4	NaN	1	4	0.124892836072298	0	1	NaN	311	5	59	1	120	220	320	NaN	520	1.86490891780704	2	0	NaN	3022212.4026833	NaN	3022213.3861893	3022213.90273098
53	20	0	0	90	36.1581920903955	36.241610738255	10	0.333357800170779	2	7	2	NaN	2	3	0.124892836072298	0	1	NaN	312	5	60	1	120	220	320	NaN	520	0.305406370200217	2	1	NaN	3022216.5865333	NaN	3022217.5699403	3022218.08648393
53	20	0	0	90	36.1581920903955	36.241610738255	16	0.533372480273247	2	9	2	NaN	2	3	0.124892836072298	0	1	NaN	313	5	61	1	120	220	320	NaN	520	1.63222451740876	2	1	NaN	3022219.2034491	NaN	3022220.1868659	3022220.70339728
53	20	0	0	90	36.1581920903955	36.241610738255	6	0.200014680102468	2	11	4	NaN	2	3	0.124892836072298	0	1	NaN	314	5	62	1	120	220	320	NaN	520	0.457551618106663	2	1	NaN	3022223.1538578	NaN	3022224.137226	3022224.65378868
53	20	0	0	90	36.1581920903955	36.241610738255	25	0.833394500426948	2	5	5	NaN	1	4	0.124892836072298	0	1	NaN	315	5	63	1	120	220	320	NaN	520	0.61104517057538	1	1	NaN	3022225.9207942	NaN	3022226.9041827	3022227.42072623
53	20	0	0	90	36.1581920903955	36.241610738255	8	0.266686240136623	2	7	5	NaN	2	3	0.124892836072298	0	1	NaN	316	6	1	1	120	220	320	NaN	520	0.252139770425856	2	1	NaN	3022272.3918877	NaN	3022273.3754213	3022273.89196093
53	20	0	0	90	36.1581920903955	36.241610738255	7	0.233350460119545	2	11	4	NaN	2	4	0.124892836072298	0	1	NaN	317	6	2	1	120	220	320	NaN	520	0.24503541784361	2	1	NaN	3022274.9589384	NaN	3022275.9423373	3022276.45887868
53	20	0	0	90	36.1581920903955	36.241610738255	11	0.366693580187857	2	9	2	NaN	2	5	0.124892836072298	0	1	NaN	318	6	3	1	120	220	320	NaN	520	0.158230770379305	2	1	NaN	3022277.5258694	NaN	3022278.509267	3022279.02580033
53	20	0	0	90	36.1581920903955	36.241610738255	21	0.700051380358636	2	6	6	NaN	1	5	0.124892836072298	0	1	NaN	319	6	4	1	120	220	320	NaN	520	0.25095917051658	2	0	NaN	3022279.992845	NaN	3022280.9761501	3022281.49270473
53	20	0	0	90	36.1581920903955	36.241610738255	21	0.700051380358636	2	7	3	NaN	2	5	0.124892836072298	0	1	NaN	320	6	5	1	120	220	320	NaN	520	0.1562504703179	2	1	NaN	3022282.5596856	NaN	3022283.5430938	3022284.05963703
53	20	0	0	90	36.1581920903955	36.241610738255	9	0.300022020153701	2	3	3	NaN	1	4	0.124892836072298	0	1	NaN	321	6	6	1	120	220	320	NaN	520	0.313228470738977	1	1	NaN	3022285.0266019	NaN	3022286.0099814	3022286.52654053
53	20	0	0	90	36.1581920903955	36.241610738255	20	0.666715600341559	2	5	1	NaN	1	4	0.124892836072298	0	1	NaN	322	6	7	1	120	220	320	NaN	520	3.95953346602619	2	0	NaN	3022287.6601891	NaN	3022288.6435904	3022289.16012443
53	20	0	0	90	36.1581920903955	36.241610738255	20	0.666715600341559	2	7	6	NaN	2	5	0.124892836072298	0	1	NaN	323	6	8	1	120	220	320	NaN	520	0.307770870625973	2	1	NaN	3022293.9441209	NaN	3022294.927533	3022295.44407823
53	20	0	0	90	36.1581920903955	36.241610738255	17	0.566708260290325	2	5	2	NaN	1	4	0.124892836072298	0	1	NaN	324	6	9	1	120	220	320	NaN	520	0.346674818079919	1	1	NaN	3022296.5610599	NaN	3022297.5444757	3022298.06100358
53	20	0	0	90	36.1581920903955	36.241610738255	10	0.333357800170779	2	2	4	NaN	1	3	0.124892836072298	0	1	NaN	325	6	10	1	120	220	320	NaN	520	0.128240670077503	2	0	NaN	3022299.2279702	NaN	3022300.2113741	3022300.72793633
53	20	0	0	90	36.1581920903955	36.241610738255	12	0.400029360204935	2	11	1	NaN	2	3	0.124892836072298	0	1	NaN	326	6	11	1	120	220	320	NaN	520	0.206217222847044	2	1	NaN	3022301.6615797	NaN	3022302.6449651	3022303.16152028
53	20	0	0	90	36.1581920903955	36.241610738255	22	0.733387160375714	2	4	6	NaN	1	3	0.124892836072298	0	1	NaN	327	6	12	1	120	220	320	NaN	520	0.201290823053569	1	1	NaN	3022304.1783528	NaN	3022305.1618595	3022305.67842878
53	20	0	0	90	36.1581920903955	36.241610738255	18	0.600044040307403	2	5	2	NaN	1	3	0.124892836072298	0	1	NaN	328	6	13	1	120	220	320	NaN	520	3.22076011821628	1	1	NaN	3022306.6953783	NaN	3022307.678784	3022308.19533328
53	20	0	0	90	36.1581920903955	36.241610738255	6	0.200014680102468	2	6	6	NaN	1	5	0.124892836072298	0	1	NaN	329	6	14	1	120	220	320	NaN	520	0.366852770093828	1	1	NaN	3022312.22926	NaN	3022313.2126623	3022313.72920403
53	20	0	0	90	36.1581920903955	36.241610738255	15	0.500036700256169	2	4	2	NaN	1	4	0.124892836072298	0	1	NaN	330	6	15	1	120	220	320	NaN	520	0.266854375600815	1	1	NaN	3022314.9128604	NaN	3022315.8962614	3022316.41281382
53	20	0	0	90	36.1581920903955	36.241610738255	13	0.433365140222013	2	12	4	NaN	2	4	0.124892836072298	0	1	NaN	331	6	16	1	120	220	320	NaN	520	3.29876162298024	2	1	NaN	3022317.9130283	NaN	3022318.8965479	3022319.41310978
53	20	0	0	90	36.1581920903955	36.241610738255	23	0.766722940392792	2	10	3	NaN	2	3	0.124892836072298	0	1	NaN	332	6	17	1	120	220	320	NaN	520	0.553575123194605	2	1	NaN	3022323.5303992	NaN	3022324.5137843	3022325.03032228
53	20	0	0	90	36.1581920903955	36.241610738255	15	0.500036700256169	2	6	5	NaN	1	5	0.124892836072298	0	1	NaN	333	6	18	1	120	220	320	NaN	520	0.214806918054819	1	1	NaN	3022326.3973245	NaN	3022327.3807292	3022327.89726328
53	20	0	0	90	36.1581920903955	36.241610738255	6	0.200014680102468	2	10	5	NaN	2	5	0.124892836072298	0	1	NaN	334	6	19	1	120	220	320	NaN	520	0.184925817884505	2	1	NaN	3022328.9309171	NaN	3022329.9143011	3022330.43084468
53	20	0	0	90	36.1581920903955	36.241610738255	16	0.533372480273247	2	6	4	NaN	1	3	0.124892836072298	0	1	NaN	335	6	20	1	120	220	320	NaN	520	0.31658551748842	1	1	NaN	3022331.4311545	NaN	3022332.4145393	3022332.93110228
53	20	0	0	90	36.1581920903955	36.241610738255	20	0.666715600341559	2	1	2	NaN	1	3	0.124892836072298	0	1	NaN	336	6	21	1	120	220	320	NaN	520	0.755104870535433	2	0	NaN	3022334.0647933	NaN	3022335.0481381	3022335.56468743
53	20	0	0	90	36.1581920903955	36.241610738255	23	0.766722940392792	2	9	5	NaN	2	5	0.124892836072298	0	1	NaN	337	6	22	1	120	220	320	NaN	520	0.184265122748911	2	1	NaN	3022337.1317909	NaN	3022338.1151581	3022338.63166348
53	20	0	0	90	36.1581920903955	36.241610738255	17	0.566708260290325	2	2	6	NaN	1	4	0.124892836072298	0	1	NaN	338	6	23	1	120	220	320	NaN	520	0.26817046571523	1	1	NaN	3022339.6319563	NaN	3022340.6153612	3022341.13189853
53	20	0	0	90	36.1581920903955	36.241610738255	6	0.200014680102468	2	1	4	NaN	1	3	0.124892836072298	0	1	NaN	339	6	24	1	120	220	320	NaN	520	0.548597142565995	2	0	NaN	3022342.2155506	NaN	3022343.1989279	3022343.71550056
53	20	0	0	90	36.1581920903955	36.241610738255	7	0.233350460119545	2	4	2	NaN	1	3	0.124892836072298	0	1	NaN	340	6	25	1	120	220	320	NaN	520	0.21770427050069	1	1	NaN	3022345.0824864	NaN	3022346.0658747	3022346.58243303
53	20	0	0	90	36.1581920903955	36.241610738255	6	0.200014680102468	2	12	1	NaN	2	4	0.124892836072298	0	1	NaN	341	6	26	1	120	220	320	NaN	520	0.643966065719724	1	0	NaN	3022347.6159588	NaN	3022348.5994741	3022349.11602013
53	20	0	0	90	36.1581920903955	36.241610738255	10	0.333357800170779	2	9	2	NaN	2	5	0.124892836072298	0	1	NaN	342	6	27	1	120	220	320	NaN	520	4.05313637061045	2	1	NaN	3022350.5663776	NaN	3022351.5497623	3022352.06630673
53	20	0	0	90	36.1581920903955	36.241610738255	19	0.633379820324481	2	4	6	NaN	1	5	0.124892836072298	0	1	NaN	343	6	28	1	120	220	320	NaN	520	0.166473218239844	1	1	NaN	3022356.9336557	NaN	3022357.9170435	3022358.43359958
53	20	0	0	90	36.1581920903955	36.241610738255	6	0.200014680102468	2	7	2	NaN	2	5	0.124892836072298	0	1	NaN	344	6	29	1	120	220	320	NaN	520	0.250721270218492	2	1	NaN	3022359.417229	NaN	3022360.4006299	3022360.91717993
53	20	0	0	90	36.1581920903955	36.241610738255	22	0.733387160375714	2	11	3	NaN	2	5	0.124892836072298	0	1	NaN	345	6	30	1	120	220	320	NaN	520	6.43564924271777	1	0	NaN	3022361.9841434	NaN	3022362.9675637	3022363.48410216
53	20	0	0	90	36.1581920903955	36.241610738255	25	0.833394500426948	2	9	4	NaN	2	5	0.124892836072298	0	1	NaN	346	6	31	1	120	220	320	NaN	520	0.237151322886348	1	0	NaN	3022370.7349854	NaN	3022371.7184169	3022372.23496178
53	20	0	0	90	36.1581920903955	36.241610738255	16	0.533372480273247	2	10	5	NaN	2	4	0.124892836072298	0	1	NaN	347	6	32	1	120	220	320	NaN	520	0.20674471789971	2	1	NaN	3022373.2852593	NaN	3022374.2686655	3022374.78521108
53	20	0	0	90	36.1581920903955	36.241610738255	13	0.433365140222013	2	7	1	NaN	2	4	0.124892836072298	0	1	NaN	348	6	33	1	120	220	320	NaN	520	0.161758370697498	2	1	NaN	3022375.8021759	NaN	3022376.7855713	3022377.30212283
53	20	0	0	90	36.1581920903955	36.241610738255	8	0.266686240136623	2	8	5	NaN	2	3	0.124892836072298	0	1	NaN	349	6	34	1	120	220	320	NaN	520	0.167007570620626	2	1	NaN	3022378.2690594	NaN	3022379.2524804	3022379.76903813
53	20	0	0	90	36.1581920903955	36.241610738255	18	0.600044040307403	2	7	6	NaN	2	4	0.124892836072298	0	1	NaN	350	6	35	1	120	220	320	NaN	520	0.123975970316678	2	1	NaN	3022380.7360006	NaN	3022381.7194023	3022382.23593823
53	20	0	0	90	36.1581920903955	36.241610738255	11	0.366693580187857	2	2	1	NaN	1	4	0.124892836072298	0	1	NaN	351	6	36	1	120	220	320	NaN	520	0.250420870725065	2	0	NaN	3022383.1695518	NaN	3022384.1529555	3022384.66950893
53	20	0	0	90	36.1581920903955	36.241610738255	7	0.233350460119545	2	9	3	NaN	2	5	0.124892836072298	0	1	NaN	352	6	37	1	120	220	320	NaN	520	0.179460170213133	2	1	NaN	3022385.7364923	NaN	3022386.7198946	3022387.23642863
53	20	0	0	90	36.1581920903955	36.241610738255	18	0.600044040307403	2	4	2	NaN	1	5	0.124892836072298	0	1	NaN	353	6	38	1	120	220	320	NaN	520	0.0471739703789353	1	1	NaN	3022388.2367484	NaN	3022389.2201238	3022389.73668493
53	20	0	0	90	36.1581920903955	36.241610738255	17	0.566708260290325	2	5	6	NaN	1	4	0.124892836072298	0	1	NaN	354	6	39	1	120	220	320	NaN	520	0.401236818172038	2	0	NaN	3022390.5868388	NaN	3022391.5703936	3022392.08691368
53	20	0	0	90	36.1581920903955	36.241610738255	18	0.600044040307403	2	3	3	NaN	1	3	0.124892836072298	0	1	NaN	355	6	40	1	120	220	320	NaN	520	0.292021117638797	1	1	NaN	3022393.3038915	NaN	3022394.2872898	3022394.80383618
53	20	0	0	90	36.1581920903955	36.241610738255	9	0.300022020153701	2	9	6	NaN	2	5	0.124892836072298	0	1	NaN	356	6	41	1	120	220	320	NaN	520	0.187793470453471	2	1	NaN	3022395.9041447	NaN	3022396.8875607	3022397.40409233
53	20	0	0	90	36.1581920903955	36.241610738255	16	0.533372480273247	2	8	5	NaN	2	4	0.124892836072298	0	1	NaN	357	6	42	1	120	220	320	NaN	520	0.727614170406014	1	0	NaN	3022398.4044021	NaN	3022399.3877994	3022399.90434203
53	20	0	0	90	36.1581920903955	36.241610738255	0	0	1	4	3	NaN	1	5	0.124892836072298	0	1	NaN	358	6	43	1	110	210	310	NaN	510	0.342213123105466	1	1	NaN	3022401.4379609	NaN	3022402.4214278	3022402.93798248
53	20	0	0	90	36.1581920903955	36.241610738255	14	0.466700920239091	2	5	6	NaN	1	3	0.124892836072298	0	1	NaN	359	6	44	1	120	220	320	NaN	520	0.515417217742652	2	0	NaN	3022404.0881678	NaN	3022405.0716814	3022405.58822788
53	20	0	0	90	36.1581920903955	36.241610738255	20	0.666715600341559	2	3	4	NaN	1	5	0.124892836072298	0	1	NaN	360	6	45	1	120	220	320	NaN	520	0.57869131769985	1	1	NaN	3022406.9052341	NaN	3022407.888644	3022408.40517668
53	20	0	0	90	36.1581920903955	36.241610738255	16	0.533372480273247	2	10	4	NaN	2	3	0.124892836072298	0	1	NaN	361	6	46	1	120	220	320	NaN	520	0.198619070462883	2	1	NaN	3022409.8055161	NaN	3022410.7889161	3022411.30545923
53	20	0	0	90	36.1581920903955	36.241610738255	10	0.333357800170779	2	3	1	NaN	1	4	0.124892836072298	0	1	NaN	362	6	47	1	120	220	320	NaN	520	4.84950617048889	2	0	NaN	3022412.3224269	NaN	3022413.3058696	3022413.82238183
53	20	0	0	90	36.1581920903955	36.241610738255	11	0.366693580187857	2	6	1	NaN	1	3	0.124892836072298	0	1	NaN	363	6	48	1	120	220	320	NaN	520	0.259194670710713	1	1	NaN	3022419.4731249	NaN	3022420.4565441	3022420.97307733
53	20	0	0	90	36.1581920903955	36.241610738255	16	0.533372480273247	2	7	5	NaN	2	4	0.124892836072298	0	1	NaN	364	6	49	1	120	220	320	NaN	520	0.21988302282989	2	1	NaN	3022422.0400888	NaN	3022423.0235005	3022423.54000188
53	20	0	0	90	36.1581920903955	36.241610738255	8	0.266686240136623	2	6	1	NaN	1	4	0.124892836072298	0	1	NaN	365	6	50	1	120	220	320	NaN	520	0.142430070787668	1	1	NaN	3022424.5736317	NaN	3022425.5570213	3022426.07357843
53	20	0	0	90	36.1581920903955	36.241610738255	10	0.333357800170779	2	11	1	NaN	2	4	0.124892836072298	0	1	NaN	366	6	51	1	120	220	320	NaN	520	0.60371351800859	2	1	NaN	3022427.0405485	NaN	3022428.0239458	3022428.54048378
53	20	0	0	90	36.1581920903955	36.241610738255	0	0	1	1	4	NaN	1	4	0.124892836072298	0	1	NaN	367	6	52	1	110	210	310	NaN	510	0.206667623016983	1	1	NaN	3022429.9574835	NaN	3022430.9408886	3022431.45743698
53	20	0	0	90	36.1581920903955	36.241610738255	13	0.433365140222013	2	10	5	NaN	2	4	0.124892836072298	0	1	NaN	368	6	53	1	120	220	320	NaN	520	0.337507370393723	2	1	NaN	3022432.4744075	NaN	3022433.4578172	3022433.97435273
53	20	0	0	90	36.1581920903955	36.241610738255	22	0.733387160375714	2	1	5	NaN	1	5	0.124892836072298	0	1	NaN	369	6	54	1	120	220	320	NaN	520	0.751375070307404	2	0	NaN	3022435.1246739	NaN	3022436.1080583	3022436.62461253
53	20	0	0	90	36.1581920903955	36.241610738255	17	0.566708260290325	2	7	3	NaN	2	5	0.124892836072298	0	1	NaN	370	6	55	1	120	220	320	NaN	520	0.452314370311797	2	1	NaN	3022438.1916385	NaN	3022439.1750386	3022439.69157953
53	20	0	0	90	36.1581920903955	36.241610738255	22	0.733387160375714	2	7	6	NaN	2	5	0.124892836072298	0	1	NaN	371	6	56	1	120	220	320	NaN	520	0.181768570560962	1	0	NaN	3022440.9584542	NaN	3022441.9419693	3022442.45852493
53	20	0	0	90	36.1581920903955	36.241610738255	11	0.366693580187857	2	7	5	NaN	2	3	0.124892836072298	0	1	NaN	372	6	57	1	120	220	320	NaN	520	0.0104371658526361	2	1	NaN	3022443.4587306	NaN	3022444.4422197	3022444.95877273
53	20	0	0	90	36.1581920903955	36.241610738255	13	0.433365140222013	2	11	6	NaN	2	3	0.124892836072298	0	1	NaN	373	6	58	1	120	220	320	NaN	520	0.0103324325755239	2	1	NaN	3022445.7757216	NaN	3022446.759125	3022447.27566517
53	20	0	0	90	36.1581920903955	36.241610738255	6	0.200014680102468	2	2	1	NaN	1	4	0.124892836072298	0	1	NaN	374	6	59	1	120	220	320	NaN	520	3.47069041803479	1	1	NaN	3022448.5092952	NaN	3022449.4927208	3022450.00925838
53	20	0	0	90	36.1581920903955	36.241610738255	23	0.766722940392792	2	6	6	NaN	1	4	0.124892836072298	0	1	NaN	375	6	60	1	120	220	320	NaN	520	0.214840575121343	2	0	NaN	3022454.2932245	NaN	3022455.2766081	3022455.79317052
53	20	0	0	90	36.1581920903955	36.241610738255	14	0.466700920239091	2	7	4	NaN	2	5	0.124892836072298	0	1	NaN	376	6	61	1	120	220	320	NaN	520	0.169911870267242	2	1	NaN	3022456.8101348	NaN	3022457.7935936	3022458.31007653
53	20	0	0	90	36.1581920903955	36.241610738255	21	0.700051380358636	2	9	1	NaN	2	5	0.124892836072298	0	1	NaN	377	6	62	1	120	220	320	NaN	520	0.238809865899384	1	0	NaN	3022459.2937188	NaN	3022460.2771093	3022460.79366103
53	20	0	0	90	36.1581920903955	36.241610738255	24	0.80005872040987	2	10	3	NaN	2	3	0.124892836072298	0	1	NaN	378	6	63	1	120	220	320	NaN	520	0.688073117751628	2	1	NaN	3022461.8439673	NaN	3022462.8273523	3022463.34390458
53	20	0	0	90	36.1581920903955	36.241610738255	12	0.400029360204935	2	9	5	NaN	2	3	0.124892836072298	0	1	NaN	379	7	1	1	120	220	320	NaN	520	0.16510807024315	2	1	NaN	3022502.6311706	NaN	3022503.6147133	3022504.13124953
53	20	0	0	90	36.1581920903955	36.241610738255	18	0.600044040307403	2	8	5	NaN	2	4	0.124892836072298	0	1	NaN	380	7	2	1	120	220	320	NaN	520	0.13749507535249	2	1	NaN	3022505.1148672	NaN	3022506.0982749	3022506.61482372
53	20	0	0	90	36.1581920903955	36.241610738255	20	0.666715600341559	2	4	1	NaN	1	3	0.124892836072298	0	1	NaN	381	7	3	1	120	220	320	NaN	520	0.143170318100601	1	1	NaN	3022507.5649991	NaN	3022508.548518	3022509.06506658
53	20	0	0	90	36.1581920903955	36.241610738255	19	0.633379820324481	2	12	6	NaN	2	4	0.124892836072298	0	1	NaN	382	7	4	1	120	220	320	NaN	520	0.020703517831862	2	1	NaN	3022510.0153449	NaN	3022510.9986584	3022511.51530228
53	20	0	0	90	36.1581920903955	36.241610738255	12	0.400029360204935	2	7	3	NaN	2	3	0.124892836072298	0	1	NaN	383	7	5	1	120	220	320	NaN	520	1.82312292279676	2	1	NaN	3022512.3488343	NaN	3022513.3323195	3022513.84887628
53	20	0	0	90	36.1581920903955	36.241610738255	25	0.833394500426948	2	5	5	NaN	1	4	0.124892836072298	0	1	NaN	384	7	6	1	120	220	320	NaN	520	0.0496540702879429	2	0	NaN	3022516.4825416	NaN	3022517.4660453	3022517.98260953
53	20	0	0	90	36.1581920903955	36.241610738255	15	0.500036700256169	2	7	6	NaN	2	5	0.124892836072298	0	1	NaN	385	7	7	1	120	220	320	NaN	520	0.0985745228827	2	1	NaN	3022518.8496115	NaN	3022519.8329574	3022520.34951128
53	20	0	0	90	36.1581920903955	36.241610738255	7	0.233350460119545	2	3	1	NaN	1	4	0.124892836072298	0	1	NaN	386	7	8	1	120	220	320	NaN	520	0.0738271176815033	2	0	NaN	3022521.2663423	NaN	3022522.2499087	3022522.76641268
53	20	0	0	90	36.1581920903955	36.241610738255	25	0.833394500426948	2	12	2	NaN	2	4	0.124892836072298	0	1	NaN	387	7	9	1	120	220	320	NaN	520	0.402208217885345	2	1	NaN	3022523.6499126	NaN	3022524.6334289	3022525.14997478
53	20	0	0	90	36.1581920903955	36.241610738255	9	0.300022020153701	2	8	2	NaN	2	4	0.124892836072298	0	1	NaN	388	7	10	1	120	220	320	NaN	520	0.029238470364362	2	1	NaN	3022526.3668946	NaN	3022527.3503453	3022527.86690853
53	20	0	0	90	36.1581920903955	36.241610738255	8	0.266686240136623	2	10	2	NaN	2	5	0.124892836072298	0	1	NaN	389	7	11	1	120	220	320	NaN	520	0.0471077230758965	2	1	NaN	3022528.7171942	NaN	3022529.700606	3022530.21714598
53	20	0	0	90	36.1581920903955	36.241610738255	25	0.833394500426948	2	3	1	NaN	1	4	0.124892836072298	0	1	NaN	390	7	12	1	120	220	320	NaN	520	0.216144322883338	2	0	NaN	3022531.0839601	NaN	3022532.0674949	3022532.58405038
53	20	0	0	90	36.1581920903955	36.241610738255	16	0.533372480273247	2	3	1	NaN	1	3	0.124892836072298	0	1	NaN	391	7	13	1	120	220	320	NaN	520	0.0104119703173637	2	0	NaN	3022533.6676774	NaN	3022534.6510753	3022535.16762653
53	20	0	0	90	36.1581920903955	36.241610738255	13	0.433365140222013	2	1	3	NaN	1	3	0.124892836072298	0	1	NaN	392	7	14	1	120	220	320	NaN	520	1.94769137026742	1	1	NaN	3022535.9845777	NaN	3022536.9679743	3022537.48452063
53	20	0	0	90	36.1581920903955	36.241610738255	21	0.700051380358636	2	10	1	NaN	2	4	0.124892836072298	0	1	NaN	393	7	15	1	120	220	320	NaN	520	0.393446370493621	2	1	NaN	3022540.2349826	NaN	3022541.2183949	3022541.73495073
53	20	0	0	90	36.1581920903955	36.241610738255	0	0	1	10	6	NaN	2	5	0.124892836072298	0	1	NaN	394	7	16	1	110	210	310	NaN	510	2.93299197079614	2	1	NaN	3022542.9352577	NaN	3022543.9186642	3022544.43520353
53	20	0	0	90	36.1581920903955	36.241610738255	21	0.700051380358636	2	1	3	NaN	1	5	0.124892836072298	0	1	NaN	395	7	17	1	120	220	320	NaN	520	1.65830487012863	2	0	NaN	3022548.1856553	NaN	3022549.1691846	3022549.68572403
53	20	0	0	90	36.1581920903955	36.241610738255	20	0.666715600341559	2	10	4	NaN	2	5	0.124892836072298	0	1	NaN	396	7	18	1	120	220	320	NaN	520	1.28325481759384	1	0	NaN	3022552.1528418	NaN	3022553.1362225	3022553.65277598
53	20	0	0	90	36.1581920903955	36.241610738255	10	0.333357800170779	2	12	4	NaN	2	3	0.124892836072298	0	1	NaN	397	7	19	1	120	220	320	NaN	520	0.283271323423833	2	1	NaN	3022555.7531957	NaN	3022556.7365854	3022557.25313308
53	20	0	0	90	36.1581920903955	36.241610738255	18	0.600044040307403	2	6	2	NaN	1	4	0.124892836072298	0	1	NaN	398	7	20	1	120	220	320	NaN	520	0.258788818027824	2	0	NaN	3022558.3533225	NaN	3022559.3368564	3022559.85339238
53	20	0	0	90	36.1581920903955	36.241610738255	24	0.80005872040987	2	10	3	NaN	2	3	0.124892836072298	0	1	NaN	399	7	21	1	120	220	320	NaN	520	0.163255723193288	2	1	NaN	3022560.9370303	NaN	3022561.9204383	3022562.43698518
53	20	0	0	90	36.1581920903955	36.241610738255	10	0.333357800170779	2	10	6	NaN	2	4	0.124892836072298	0	1	NaN	400	7	22	1	120	220	320	NaN	520	0.224273989908397	2	1	NaN	3022563.4039435	NaN	3022564.387265	3022564.90388941
53	20	0	0	90	36.1581920903955	36.241610738255	25	0.833394500426948	2	11	2	NaN	2	3	0.124892836072298	0	1	NaN	401	7	23	1	120	220	320	NaN	520	0.130665117874742	2	1	NaN	3022565.9374047	NaN	3022566.9209457	3022567.43746798
53	20	0	0	90	36.1581920903955	36.241610738255	18	0.600044040307403	2	2	2	NaN	1	4	0.124892836072298	0	1	NaN	402	7	24	1	120	220	320	NaN	520	1.85648897057399	1	1	NaN	3022568.3877836	NaN	3022569.3711706	3022569.88770423
53	20	0	0	90	36.1581920903955	36.241610738255	12	0.400029360204935	2	7	3	NaN	2	3	0.124892836072298	0	1	NaN	403	7	25	1	120	220	320	NaN	520	0.281626870390028	2	1	NaN	3022572.5548653	NaN	3022573.5382438	3022574.05479233
53	20	0	0	90	36.1581920903955	36.241610738255	13	0.433365140222013	2	11	3	NaN	2	5	0.124892836072298	0	1	NaN	404	7	26	1	120	220	320	NaN	520	1.44144867081195	2	1	NaN	3022575.1550997	NaN	3022576.13849	3022576.65503723
53	20	0	0	90	36.1581920903955	36.241610738255	11	0.366693580187857	2	8	1	NaN	2	3	0.124892836072298	0	1	NaN	405	7	27	1	120	220	320	NaN	520	0.219111870508641	2	1	NaN	3022578.9054616	NaN	3022579.8888585	3022580.40541123
53	20	0	0	90	36.1581920903955	36.241610738255	24	0.80005872040987	2	7	6	NaN	2	4	0.124892836072298	0	1	NaN	406	7	28	1	120	220	320	NaN	520	0.317255170084536	2	1	NaN	3022581.4390641	NaN	3022582.4224388	3022582.93899143
53	20	0	0	90	36.1581920903955	36.241610738255	0	0	1	12	5	NaN	2	3	0.124892836072298	0	1	NaN	407	7	29	1	110	210	310	NaN	510	0.555819317698479	1	0	NaN	3022584.0726413	NaN	3022585.0560459	3022585.57258108
53	20	0	0	90	36.1581920903955	36.241610738255	7	0.233350460119545	2	6	6	NaN	1	5	0.124892836072298	0	1	NaN	408	7	30	1	120	220	320	NaN	520	0.160527017433196	1	1	NaN	3022586.9395821	NaN	3022587.9229757	3022588.43952718
53	20	0	0	90	36.1581920903955	36.241610738255	9	0.300022020153701	2	10	3	NaN	2	5	0.124892836072298	0	1	NaN	409	7	31	1	120	220	320	NaN	520	0.0105009558610618	2	1	NaN	3022589.4064837	NaN	3022590.3899141	3022590.90643764
53	20	0	0	90	36.1581920903955	36.241610738255	18	0.600044040307403	2	6	6	NaN	1	4	0.124892836072298	0	1	NaN	410	7	32	1	120	220	320	NaN	520	1.96021071821451	1	1	NaN	3022591.7400559	NaN	3022592.7234614	3022593.23999988
53	20	0	0	90	36.1581920903955	36.241610738255	9	0.300022020153701	2	7	2	NaN	2	4	0.124892836072298	0	1	NaN	411	7	33	1	120	220	320	NaN	520	0.165144017897546	2	1	NaN	3022596.0070903	NaN	3022596.9905472	3022597.50708538
53	20	0	0	90	36.1581920903955	36.241610738255	11	0.366693580187857	2	3	4	NaN	1	4	0.124892836072298	0	1	NaN	412	7	34	1	120	220	320	NaN	520	0.153698218055069	2	0	NaN	3022598.4908116	NaN	3022599.474128	3022599.99067118
53	20	0	0	90	36.1581920903955	36.241610738255	19	0.633379820324481	2	7	2	NaN	2	4	0.124892836072298	0	1	NaN	413	7	35	1	120	220	320	NaN	520	1.91869897022843	1	0	NaN	3022600.9575149	NaN	3022601.9410399	3022602.45756823
53	20	0	0	90	36.1581920903955	36.241610738255	14	0.466700920239091	2	9	4	NaN	2	5	0.124892836072298	0	1	NaN	414	7	36	1	120	220	320	NaN	520	0.180583017878234	2	1	NaN	3022605.1913943	NaN	3022606.1747829	3022606.69132238
53	20	0	0	90	36.1581920903955	36.241610738255	6	0.200014680102468	2	10	2	NaN	2	3	0.124892836072298	0	1	NaN	415	7	37	1	120	220	320	NaN	520	0.208900417666882	2	1	NaN	3022607.6914734	NaN	3022608.6750399	3022609.19156978
53	20	0	0	90	36.1581920903955	36.241610738255	6	0.200014680102468	2	2	6	NaN	1	3	0.124892836072298	0	1	NaN	416	7	38	1	120	220	320	NaN	520	0.116285017691553	2	0	NaN	3022610.2083998	NaN	3022611.1919182	3022611.70849528
53	20	0	0	90	36.1581920903955	36.241610738255	25	0.833394500426948	2	12	6	NaN	2	3	0.124892836072298	0	1	NaN	417	7	39	1	120	220	320	NaN	520	0.418005770538002	2	1	NaN	3022612.6421286	NaN	3022613.6255149	3022614.14205593
53	20	0	0	90	36.1581920903955	36.241610738255	13	0.433365140222013	2	9	3	NaN	2	5	0.124892836072298	0	1	NaN	418	7	40	1	120	220	320	NaN	520	0.22877163765952	2	1	NaN	3022615.375706	NaN	3022616.359103	3022616.87566276
53	20	0	0	90	36.1581920903955	36.241610738255	20	0.666715600341559	2	3	4	NaN	1	4	0.124892836072298	0	1	NaN	419	7	41	1	120	220	320	NaN	520	2.96624937048182	1	1	NaN	3022617.9259584	NaN	3022618.9093736	3022619.42591063
53	20	0	0	90	36.1581920903955	36.241610738255	23	0.766722940392792	2	8	2	NaN	2	4	0.124892836072298	0	1	NaN	420	7	42	1	120	220	320	NaN	520	0.12282761791721	2	1	NaN	3022623.2098153	NaN	3022624.1932195	3022624.70975838
53	20	0	0	90	36.1581920903955	36.241610738255	18	0.600044040307403	2	3	2	NaN	1	3	0.124892836072298	0	1	NaN	421	7	43	1	120	220	320	NaN	520	0.0250778952613473	2	0	NaN	3022625.6432542	NaN	3022626.6267956	3022627.143338
53	20	0	0	90	36.1581920903955	36.241610738255	12	0.400029360204935	2	4	5	NaN	1	4	0.124892836072298	0	1	NaN	422	7	44	1	120	220	320	NaN	520	0.163220065645874	2	0	NaN	3022627.9769417	NaN	3022628.9602546	3022629.47688993
53	20	0	0	90	36.1581920903955	36.241610738255	16	0.533372480273247	2	1	5	NaN	1	3	0.124892836072298	0	1	NaN	423	7	45	1	120	220	320	NaN	520	0.119897717610002	2	0	NaN	3022630.4605367	NaN	3022631.4440477	3022631.96046898
53	20	0	0	90	36.1581920903955	36.241610738255	17	0.566708260290325	2	11	3	NaN	2	4	0.124892836072298	0	1	NaN	424	7	46	1	120	220	320	NaN	520	0.270578270312399	2	1	NaN	3022632.8941087	NaN	3022633.8775181	3022634.39405243
53	20	0	0	90	36.1581920903955	36.241610738255	6	0.200014680102468	2	4	5	NaN	1	3	0.124892836072298	0	1	NaN	425	7	47	1	120	220	320	NaN	520	0.350796242710203	2	0	NaN	3022635.4776853	NaN	3022636.4610843	3022636.97764406
53	20	0	0	90	36.1581920903955	36.241610738255	22	0.733387160375714	2	9	6	NaN	2	5	0.124892836072298	0	1	NaN	426	7	48	1	120	220	320	NaN	520	0.787670865654945	2	1	NaN	3022638.1446237	NaN	3022639.1279994	3022639.64456293
53	20	0	0	90	36.1581920903955	36.241610738255	9	0.300022020153701	2	12	3	NaN	2	4	0.124892836072298	0	1	NaN	427	7	49	1	120	220	320	NaN	520	0.263556070625782	2	1	NaN	3022641.2449306	NaN	3022642.2283379	3022642.74486773
53	20	0	0	90	36.1581920903955	36.241610738255	11	0.366693580187857	2	5	4	NaN	1	4	0.124892836072298	0	1	NaN	428	7	50	1	120	220	320	NaN	520	0.664682070724666	1	1	NaN	3022643.8117335	NaN	3022644.7952257	3022645.31178713
53	20	0	0	90	36.1581920903955	36.241610738255	7	0.233350460119545	2	7	1	NaN	2	3	0.124892836072298	0	1	NaN	429	7	51	1	120	220	320	NaN	520	0.192884422838688	2	1	NaN	3022646.795486	NaN	3022647.77891	3022648.29541918
53	20	0	0	90	36.1581920903955	36.241610738255	25	0.833394500426948	2	6	2	NaN	1	4	0.124892836072298	0	1	NaN	430	7	52	1	120	220	320	NaN	520	0.28491777041927	1	1	NaN	3022649.2957099	NaN	3022650.2791184	3022650.79565203
53	20	0	0	90	36.1581920903955	36.241610738255	22	0.733387160375714	2	3	3	NaN	1	4	0.124892836072298	0	1	NaN	431	7	53	1	120	220	320	NaN	520	0.260247265454382	1	1	NaN	3022651.8958479	NaN	3022652.8793725	3022653.39590443
53	20	0	0	90	36.1581920903955	36.241610738255	13	0.433365140222013	2	2	2	NaN	1	4	0.124892836072298	0	1	NaN	432	7	54	1	120	220	320	NaN	520	0.109484223183244	1	1	NaN	3022654.4627432	NaN	3022655.4462966	3022655.96283808
53	20	0	0	90	36.1581920903955	36.241610738255	13	0.433365140222013	2	4	4	NaN	1	5	0.124892836072298	0	1	NaN	433	7	55	1	120	220	320	NaN	520	0.250855870079249	2	0	NaN	3022656.9298014	NaN	3022657.9131752	3022658.42974113
53	20	0	0	90	36.1581920903955	36.241610738255	20	0.666715600341559	2	9	1	NaN	2	4	0.124892836072298	0	1	NaN	434	7	56	1	120	220	320	NaN	520	0.499747917521745	2	1	NaN	3022659.4967199	NaN	3022660.480136	3022660.99665148
53	20	0	0	90	36.1581920903955	36.241610738255	14	0.466700920239091	2	1	6	NaN	1	5	0.124892836072298	0	1	NaN	435	7	57	1	120	220	320	NaN	520	0.367216517683119	2	0	NaN	3022662.9970675	NaN	3022663.9804659	3022664.49700698
53	20	0	0	90	36.1581920903955	36.241610738255	18	0.600044040307403	2	10	5	NaN	2	5	0.124892836072298	0	1	NaN	436	7	58	1	120	220	320	NaN	520	0.100386770442128	2	1	NaN	3022680.0320546	NaN	3022681.0154616	3022681.53200813
53	20	0	0	90	36.1581920903955	36.241610738255	21	0.700051380358636	2	6	1	NaN	1	5	0.124892836072298	0	1	NaN	437	7	59	1	120	220	320	NaN	520	2.78470171801746	1	1	NaN	3022683.1156858	NaN	3022684.0990966	3022684.61565008
53	20	0	0	90	36.1581920903955	36.241610738255	12	0.400029360204935	2	10	6	NaN	2	4	0.124892836072298	0	1	NaN	438	7	60	1	120	220	320	NaN	520	0.30091317044571	2	1	NaN	3022688.1995411	NaN	3022689.1829453	3022689.69947783
53	20	0	0	90	36.1581920903955	36.241610738255	16	0.533372480273247	2	11	2	NaN	2	5	0.124892836072298	0	1	NaN	439	7	61	1	120	220	320	NaN	520	2.6199188423343	2	1	NaN	3022690.8164519	NaN	3022691.7998522	3022692.31640396
53	20	0	0	90	36.1581920903955	36.241610738255	20	0.666715600341559	2	12	3	NaN	2	3	0.124892836072298	0	1	NaN	440	7	62	1	120	220	320	NaN	520	0.294072684831917	2	1	NaN	3022695.7501372	NaN	3022696.733704	3022697.25022181
53	20	0	0	90	36.1581920903955	36.241610738255	7	0.233350460119545	2	7	6	NaN	2	5	0.124892836072298	0	1	NaN	441	7	63	1	120	220	320	NaN	520	3.85334017081186	2	1	NaN	3022698.3671913	NaN	3022699.3505969	3022699.86714103
53	20	0	0	90	36.1581920903955	36.241610738255	9	0.300022020153701	2	6	1	NaN	1	5	0.124892836072298	0	1	NaN	442	8	1	1	120	220	320	NaN	520	0.230225417762995	1	1	NaN	3022752.6225452	NaN	3022753.6059276	3022754.12248858
53	20	0	0	90	36.1581920903955	36.241610738255	13	0.433365140222013	2	10	1	NaN	2	5	0.124892836072298	0	1	NaN	443	8	2	1	120	220	320	NaN	520	0.199720770586282	2	1	NaN	3022755.1727885	NaN	3022756.1561853	3022756.67272133
53	20	0	0	90	36.1581920903955	36.241610738255	10	0.333357800170779	2	11	5	NaN	2	3	0.124892836072298	0	1	NaN	444	8	3	1	120	220	320	NaN	520	0.170863123144954	2	1	NaN	3022757.6896756	NaN	3022758.6730859	3022759.18964398
53	20	0	0	90	36.1581920903955	36.241610738255	10	0.333357800170779	2	4	6	NaN	1	4	0.124892836072298	0	1	NaN	445	8	4	1	120	220	320	NaN	520	0.0792657705023885	1	1	NaN	3022760.1732624	NaN	3022761.1566666	3022761.67320923
53	20	0	0	90	36.1581920903955	36.241610738255	9	0.300022020153701	2	1	6	NaN	1	4	0.124892836072298	0	1	NaN	446	8	5	1	120	220	320	NaN	520	2.38348337030038	2	0	NaN	3022762.5567247	NaN	3022763.5402277	3022764.05678243
53	20	0	0	90	36.1581920903955	36.241610738255	13	0.433365140222013	2	2	3	NaN	1	4	0.124892836072298	0	1	NaN	447	8	6	1	120	220	320	NaN	520	1.89128147065639	2	0	NaN	3022767.257149	NaN	3022768.2407121	3022768.75725143
53	20	0	0	90	36.1581920903955	36.241610738255	17	0.566708260290325	2	9	4	NaN	2	5	0.124892836072298	0	1	NaN	448	8	7	1	120	220	320	NaN	520	0.227134270593524	2	1	NaN	3022771.4575908	NaN	3022772.4411093	3022772.95765873
53	20	0	0	90	36.1581920903955	36.241610738255	8	0.266686240136623	2	9	3	NaN	2	5	0.124892836072298	0	1	NaN	449	8	8	1	120	220	320	NaN	520	0.117154923267663	2	1	NaN	3022773.991307	NaN	3022774.9747036	3022775.49124528
53	20	0	0	90	36.1581920903955	36.241610738255	16	0.533372480273247	2	12	5	NaN	2	3	0.124892836072298	0	1	NaN	450	8	9	1	120	220	320	NaN	520	0.507719242479652	1	0	NaN	3022776.42487	NaN	3022777.4082553	3022777.92481676
53	20	0	0	90	36.1581920903955	36.241610738255	19	0.633379820324481	2	1	5	NaN	1	5	0.124892836072298	0	1	NaN	451	8	10	1	120	220	320	NaN	520	0.216568523086607	1	1	NaN	3022779.2918282	NaN	3022780.2752145	3022780.79176208
53	20	0	0	90	36.1581920903955	36.241610738255	15	0.500036700256169	2	6	2	NaN	1	4	0.124892836072298	0	1	NaN	452	8	11	1	120	220	320	NaN	520	3.13909667031839	1	1	NaN	3022781.8253921	NaN	3022782.8087857	3022783.32533513
53	20	0	0	90	36.1581920903955	36.241610738255	22	0.733387160375714	2	9	6	NaN	2	4	0.124892836072298	0	1	NaN	453	8	12	1	120	220	320	NaN	520	0.20831361785531	2	1	NaN	3022787.2759007	NaN	3022788.2593627	3022788.77587968
53	20	0	0	90	36.1581920903955	36.241610738255	17	0.566708260290325	2	6	3	NaN	1	5	0.124892836072298	0	1	NaN	454	8	13	1	120	220	320	NaN	520	0.283987370319664	1	1	NaN	3022789.7927453	NaN	3022790.7762498	3022791.29279823
53	20	0	0	90	36.1581920903955	36.241610738255	12	0.400029360204935	2	2	4	NaN	1	4	0.124892836072298	0	1	NaN	455	8	14	1	120	220	320	NaN	520	0.267670422792435	2	0	NaN	3022792.3931095	NaN	3022793.3763922	3022793.89305098
53	20	0	0	90	36.1581920903955	36.241610738255	22	0.733387160375714	2	4	4	NaN	1	3	0.124892836072298	0	1	NaN	456	8	15	1	120	220	320	NaN	520	0.219873751047999	2	0	NaN	3022794.9766874	NaN	3022795.9601091	3022796.47662335
53	20	0	0	90	36.1581920903955	36.241610738255	22	0.733387160375714	2	12	2	NaN	2	4	0.124892836072298	0	1	NaN	457	8	16	1	120	220	320	NaN	520	1.47823042282835	2	1	NaN	3022797.5103117	NaN	3022798.4936663	3022799.01021778
53	20	0	0	90	36.1581920903955	36.241610738255	21	0.700051380358636	2	3	2	NaN	1	5	0.124892836072298	0	1	NaN	458	8	17	1	120	220	320	NaN	520	0.691495970357209	1	1	NaN	3022801.3773172	NaN	3022802.3607097	3022802.87726303
53	20	0	0	90	36.1581920903955	36.241610738255	0	0	1	2	3	NaN	1	3	0.124892836072298	0	1	NaN	459	8	18	1	110	210	310	NaN	510	0.288867270108312	1	1	NaN	3022804.4275873	NaN	3022805.4110304	3022805.92756133
53	20	0	0	90	36.1581920903955	36.241610738255	15	0.500036700256169	2	10	3	NaN	2	4	0.124892836072298	0	1	NaN	460	8	19	1	120	220	320	NaN	520	0.224975570570678	2	1	NaN	3022807.0278615	NaN	3022808.0112537	3022808.52781293
