subjno	age	gender	isPractice	viewdist	CmToPixX	CmToPixY	SOA_frm	SOA_time	targNum	targID	targExample	targRace	targGender	firstTargPos	contrast	familiarity	curr_staircase	iStair	TrialNum	BlockNum	blktrl	sessionNum	TC_FIXATION	TC_RSVP_START	TC_RSVP_END	TC_BLANK	TC_RESPONSE_ONSET	RT2afc	resp_2afc	acc	RSVPOnsetVBL	RSVPOnsetTime	RSVPOffsetVBL	RSVPOffsetTime	startrt_2afc
41	19	1	0	90	36.1581920903955	36.241610738255	14	0.466699968036264	2	9	6	NaN	2	4	0.07020130164029	1	1	NaN	1	1	1	2	121	221	321	NaN	521	1.74088607495651	2	1	NaN	1735786.5831916	NaN	1735787.5664386	1735788.09956342
41	19	1	0	90	36.1581920903955	36.241610738255	7	0.233349984018132	2	11	2	NaN	2	5	0.07020130164029	1	1	NaN	2	1	2	2	121	221	321	NaN	521	0.159592827549204	1	0	NaN	1735790.7002333	NaN	1735791.6835009	1735792.21664607
41	19	1	0	90	36.1581920903955	36.241610738255	13	0.433364256033674	2	3	6	NaN	1	3	0.07020130164029	1	1	NaN	3	1	3	2	121	221	321	NaN	521	0.0106959124095738	1	1	NaN	1735793.2003279	NaN	1735794.1836665	1735794.70021189
41	19	1	0	90	36.1581920903955	36.241610738255	16	0.533371392041445	2	6	3	NaN	1	4	0.07020130164029	1	1	NaN	4	1	4	2	121	221	321	NaN	521	0.237732469802722	1	1	NaN	1735795.5503663	NaN	1735796.533888	1735797.05044573
41	19	1	0	90	36.1581920903955	36.241610738255	14	0.466699968036264	2	9	1	NaN	2	5	0.07020130164029	1	1	NaN	5	1	5	2	121	221	321	NaN	521	0.126914069987833	2	1	NaN	1735798.1174061	NaN	1735799.100859	1735799.61736603
41	19	1	0	90	36.1581920903955	36.241610738255	8	0.266685696020722	2	4	3	NaN	1	5	0.07020130164029	1	1	NaN	6	1	6	2	121	221	321	NaN	521	0.01042311755009	1	1	NaN	1735800.5843248	NaN	1735801.5677163	1735802.08426748
41	19	1	0	90	36.1581920903955	36.241610738255	16	0.533371392041445	2	9	4	NaN	2	3	0.07020130164029	1	1	NaN	7	1	7	2	121	221	321	NaN	521	0.0104159701149911	2	1	NaN	1735802.9179016	NaN	1735803.901276	1735804.41783713
41	19	1	0	90	36.1581920903955	36.241610738255	19	0.633378528049216	2	6	2	NaN	1	5	0.07020130164029	1	1	NaN	8	1	8	2	121	221	321	NaN	521	0.328888422576711	1	1	NaN	1735805.2514172	NaN	1735806.2348396	1735806.75141088
41	19	1	0	90	36.1581920903955	36.241610738255	16	0.533371392041445	2	11	1	NaN	2	5	0.07020130164029	1	1	NaN	9	1	9	2	121	221	321	NaN	521	0.270252370042726	1	0	NaN	1735807.9016814	NaN	1735808.8851076	1735809.40165783
41	19	1	0	90	36.1581920903955	36.241610738255	0	0	1	8	1	NaN	2	3	0.07020130164029	1	1	NaN	10	1	10	2	111	211	311	NaN	511	0.0103926225565374	2	1	NaN	1735810.5019871	NaN	1735811.4853623	1735812.00191818
41	19	1	0	90	36.1581920903955	36.241610738255	11	0.366692832028493	2	1	4	NaN	1	4	0.07020130164029	1	1	NaN	11	1	11	2	121	221	321	NaN	521	0.560675269924104	1	1	NaN	1735812.8355338	NaN	1735813.8189272	1735814.33547683
41	19	1	0	90	36.1581920903955	36.241610738255	19	0.633378528049216	2	7	3	NaN	2	5	0.07020130164029	1	1	NaN	12	1	12	2	121	221	321	NaN	521	0.221273170085624	2	1	NaN	1735815.719171	NaN	1735816.702523	1735817.21909413
41	19	1	0	90	36.1581920903955	36.241610738255	24	0.800057088062167	2	1	2	NaN	1	4	0.07020130164029	1	1	NaN	13	1	13	2	121	221	321	NaN	521	0.0104058701545	1	1	NaN	1735818.2527353	NaN	1735819.236155	1735819.75267483
41	19	1	0	90	36.1581920903955	36.241610738255	21	0.700049952054396	2	2	4	NaN	1	5	0.07020130164029	1	1	NaN	14	1	14	2	121	221	321	NaN	521	0.0104051227681339	1	1	NaN	1735820.5862942	NaN	1735821.5696686	1735822.08624238
41	19	1	0	90	36.1581920903955	36.241610738255	0	0	1	10	5	NaN	2	4	0.07020130164029	1	1	NaN	15	1	15	2	111	211	311	NaN	511	0.10794638004154	2	1	NaN	1735822.9198549	NaN	1735823.9032463	1735824.41980062
41	19	1	0	90	36.1581920903955	36.241610738255	6	0.200014272015542	2	1	6	NaN	1	3	0.07020130164029	1	1	NaN	16	1	16	2	121	221	321	NaN	521	0.0186925225425512	1	1	NaN	1735825.3534329	NaN	1735826.336813	1735826.85337438
41	19	1	0	90	36.1581920903955	36.241610738255	0	0	1	9	3	NaN	2	5	0.07020130164029	1	1	NaN	17	1	17	2	111	211	311	NaN	511	0.0132310700137168	2	1	NaN	1735827.6869934	NaN	1735828.6703837	1735829.18693553
41	19	1	0	90	36.1581920903955	36.241610738255	0	0	1	11	5	NaN	2	4	0.07020130164029	1	1	NaN	18	1	18	2	111	211	311	NaN	511	0.0104248176794499	2	1	NaN	1735830.0205493	NaN	1735831.0039267	1735831.52049038
41	19	1	0	90	36.1581920903955	36.241610738255	16	0.533371392041445	2	12	6	NaN	2	4	0.07020130164029	1	1	NaN	19	1	19	2	121	221	321	NaN	521	0.0104082699399441	2	1	NaN	1735832.3541219	NaN	1735833.3374969	1735833.85406393
41	19	1	0	90	36.1581920903955	36.241610738255	17	0.566707104044035	2	12	5	NaN	2	4	0.07020130164029	1	1	NaN	20	1	20	2	121	221	321	NaN	521	0.548195974901319	2	1	NaN	1735834.6876797	NaN	1735835.6711004	1735836.18762733
41	19	1	0	90	36.1581920903955	36.241610738255	17	0.566707104044035	2	4	5	NaN	1	3	0.07020130164029	1	1	NaN	21	1	21	2	121	221	321	NaN	521	0.0104102699551731	1	1	NaN	1735837.5545984	NaN	1735838.5380224	1735839.05456983
41	19	1	0	90	36.1581920903955	36.241610738255	23	0.766721376059577	2	4	5	NaN	1	4	0.07020130164029	1	1	NaN	22	1	22	2	121	221	321	NaN	521	0.0839949699584395	1	1	NaN	1735839.8881884	NaN	1735840.8715905	1735841.38812943
41	19	1	0	90	36.1581920903955	36.241610738255	11	0.366692832028493	2	4	6	NaN	1	3	0.07020130164029	1	1	NaN	23	1	23	2	121	221	321	NaN	521	0.0104106699582189	1	1	NaN	1735842.2883375	NaN	1735843.2718201	1735843.78836833
41	19	1	0	90	36.1581920903955	36.241610738255	18	0.600042816046625	2	2	5	NaN	1	5	0.07020130164029	1	1	NaN	24	1	24	2	121	221	321	NaN	521	0.550214032642543	1	1	NaN	1735844.6219876	NaN	1735845.6053622	1735846.12192827
41	19	1	0	90	36.1581920903955	36.241610738255	19	0.633378528049216	2	5	6	NaN	1	5	0.07020130164029	1	1	NaN	25	1	25	2	121	221	321	NaN	521	0.475286270026118	2	0	NaN	1735847.4889401	NaN	1735848.4723283	1735848.98887993
41	19	1	0	90	36.1581920903955	36.241610738255	22	0.733385664056987	2	6	3	NaN	1	4	0.07020130164029	1	1	NaN	26	1	26	2	121	221	321	NaN	521	0.299280222505331	1	1	NaN	1735850.4725341	NaN	1735851.4559466	1735851.97250648
41	19	1	0	90	36.1581920903955	36.241610738255	21	0.700049952054396	2	2	4	NaN	1	4	0.07020130164029	1	1	NaN	27	1	27	2	121	221	321	NaN	521	0.0104032701347023	1	1	NaN	1735853.489486	NaN	1735854.4729232	1735854.98947303
41	19	1	0	90	36.1581920903955	36.241610738255	19	0.633378528049216	2	3	4	NaN	1	4	0.07020130164029	1	1	NaN	28	1	28	2	121	221	321	NaN	521	0.0291521225590259	1	1	NaN	1735855.8230955	NaN	1735856.8064676	1735857.32303708
41	19	1	0	90	36.1581920903955	36.241610738255	18	0.600042816046625	2	9	6	NaN	2	4	0.07020130164029	1	1	NaN	29	1	29	2	121	221	321	NaN	521	0.0104134699795395	2	1	NaN	1735858.5733664	NaN	1735859.5566378	1735860.07330163
41	19	1	0	90	36.1581920903955	36.241610738255	8	0.266685696020722	2	6	2	NaN	1	3	0.07020130164029	1	1	NaN	30	1	30	2	121	221	321	NaN	521	0.01040352252312	1	1	NaN	1735860.9069205	NaN	1735861.8903666	1735862.40686818
41	19	1	0	90	36.1581920903955	36.241610738255	22	0.733385664056987	2	2	1	NaN	1	3	0.07020130164029	1	1	NaN	31	1	31	2	121	221	321	NaN	521	0.155818569939584	1	1	NaN	1735863.2404912	NaN	1735864.2238928	1735864.74042453
41	19	1	0	90	36.1581920903955	36.241610738255	21	0.700049952054396	2	12	1	NaN	2	4	0.07020130164029	1	1	NaN	32	1	32	2	121	221	321	NaN	521	0.0104083225596696	2	1	NaN	1735865.7740714	NaN	1735866.7574384	1735867.27401238
41	19	1	0	90	36.1581920903955	36.241610738255	16	0.533371392041445	2	1	6	NaN	1	3	0.07020130164029	1	1	NaN	33	1	33	2	121	221	321	NaN	521	0.0104070699308068	1	1	NaN	1735868.2409348	NaN	1735869.2243687	1735869.74091723
41	19	1	0	90	36.1581920903955	36.241610738255	0	0	1	11	6	NaN	2	5	0.07020130164029	1	1	NaN	34	1	34	2	111	211	311	NaN	511	0.0104026226326823	2	1	NaN	1735870.5745248	NaN	1735871.5579207	1735872.07447758
41	19	1	0	90	36.1581920903955	36.241610738255	16	0.533371392041445	2	3	4	NaN	1	3	0.07020130164029	1	1	NaN	35	1	35	2	121	221	321	NaN	521	0.0104137698654085	1	1	NaN	1735872.9079803	NaN	1735873.8915191	1735874.40804273
41	19	1	0	90	36.1581920903955	36.241610738255	11	0.366692832028493	2	2	6	NaN	1	5	0.07020130164029	1	1	NaN	36	1	36	2	121	221	321	NaN	521	0.130594917573035	1	1	NaN	1735875.241629	NaN	1735876.2250479	1735876.74159438
41	19	1	0	90	36.1581920903955	36.241610738255	23	0.766721376059577	2	2	1	NaN	1	5	0.07020130164029	1	1	NaN	37	1	37	2	121	221	321	NaN	521	0.0104004226159304	1	1	NaN	1735878.1251516	NaN	1735879.1086708	1735879.62521588
41	19	1	0	90	36.1581920903955	36.241610738255	21	0.700049952054396	2	4	2	NaN	1	4	0.07020130164029	1	1	NaN	38	1	38	2	121	221	321	NaN	521	0.0974140700418502	2	0	NaN	1735880.4588338	NaN	1735881.4422261	1735881.95878123
41	19	1	0	90	36.1581920903955	36.241610738255	23	0.766721376059577	2	2	1	NaN	1	3	0.07020130164029	1	1	NaN	39	1	39	2	121	221	321	NaN	521	0.121745770098642	1	1	NaN	1735883.8424666	NaN	1735884.8259037	1735885.34245283
41	19	1	0	90	36.1581920903955	36.241610738255	6	0.200014272015542	2	7	4	NaN	2	5	0.07020130164029	1	1	NaN	40	1	40	2	121	221	321	NaN	521	0.0104095700662583	2	1	NaN	1735886.2927393	NaN	1735887.2761434	1735887.79268683
41	19	1	0	90	36.1581920903955	36.241610738255	7	0.233349984018132	2	12	3	NaN	2	3	0.07020130164029	1	1	NaN	41	1	41	2	121	221	321	NaN	521	0.0104140699841082	1	0	NaN	1735888.6262001	NaN	1735889.6097058	1735890.12624523
41	19	1	0	90	36.1581920903955	36.241610738255	0	0	1	6	1	NaN	1	4	0.07020130164029	1	1	NaN	42	1	42	2	111	211	311	NaN	511	0.244631222682074	1	1	NaN	1735890.9598658	NaN	1735891.9432409	1735892.45981658
41	19	1	0	90	36.1581920903955	36.241610738255	25	0.833392800064757	2	6	6	NaN	1	5	0.07020130164029	1	1	NaN	43	1	43	2	121	221	321	NaN	521	0.01028638985008	1	1	NaN	1735893.5267939	NaN	1735894.5101866	1735895.02673301
41	19	1	0	90	36.1581920903955	36.241610738255	14	0.466699968036264	2	6	1	NaN	1	4	0.07020130164029	1	1	NaN	44	1	44	2	121	221	321	NaN	521	0.0103971227072179	1	1	NaN	1735895.8603658	NaN	1735896.8437401	1735897.36029828
41	19	1	0	90	36.1581920903955	36.241610738255	13	0.433364256033674	2	1	3	NaN	1	3	0.07020130164029	1	1	NaN	45	1	45	2	121	221	321	NaN	521	0.0104293175972998	1	1	NaN	1735898.1939193	NaN	1735899.1773075	1735899.69385668
41	19	1	0	90	36.1581920903955	36.241610738255	13	0.433364256033674	2	12	4	NaN	2	3	0.07020130164029	1	1	NaN	46	1	46	2	121	221	321	NaN	521	0.268987369956449	2	1	NaN	1735900.5273715	NaN	1735901.5108593	1735902.02742043
41	19	1	0	90	36.1581920903955	36.241610738255	11	0.366692832028493	2	6	4	NaN	1	5	0.07020130164029	1	1	NaN	47	1	47	2	121	221	321	NaN	521	0.613093169871718	1	1	NaN	1735903.1110301	NaN	1735904.094461	1735904.61100443
41	19	1	0	90	36.1581920903955	36.241610738255	22	0.733385664056987	2	12	5	NaN	2	5	0.07020130164029	1	1	NaN	48	1	48	2	121	221	321	NaN	521	1.62418526993133	2	1	NaN	1735906.0280322	NaN	1735907.0114073	1735907.52795063
41	19	1	0	90	36.1581920903955	36.241610738255	24	0.800057088062167	2	11	3	NaN	2	4	0.07020130164029	1	1	NaN	49	1	49	2	121	221	321	NaN	521	0.0104055698029697	2	1	NaN	1735909.9784099	NaN	1735910.9617952	1735911.47834653
41	19	1	0	90	36.1581920903955	36.241610738255	25	0.833392800064757	2	5	4	NaN	1	3	0.07020130164029	1	1	NaN	50	1	50	2	121	221	321	NaN	521	0.0104252700693905	1	1	NaN	1735912.3119719	NaN	1735913.2953442	1735913.81190583
41	19	1	0	90	36.1581920903955	36.241610738255	6	0.200014272015542	2	12	3	NaN	2	4	0.07020130164029	1	1	NaN	51	1	51	2	121	221	321	NaN	521	0.010300537571311	2	1	NaN	1735915.1784944	NaN	1735916.1623122	1735916.67886276
41	19	1	0	90	36.1581920903955	36.241610738255	22	0.733385664056987	2	10	6	NaN	2	5	0.07020130164029	1	1	NaN	52	1	52	2	121	221	321	NaN	521	0.0104146748781204	2	1	NaN	1735917.4956728	NaN	1735918.4791919	1735918.99575033
41	19	1	0	90	36.1581920903955	36.241610738255	22	0.733385664056987	2	9	5	NaN	2	5	0.07020130164029	1	1	NaN	53	1	53	2	121	221	321	NaN	521	0.347503969911486	2	1	NaN	1735920.3127299	NaN	1735921.2961938	1735921.81269313
41	19	1	0	90	36.1581920903955	36.241610738255	19	0.633378528049216	2	3	1	NaN	1	5	0.07020130164029	1	1	NaN	54	1	54	2	121	221	321	NaN	521	0.879872069926932	1	1	NaN	1735923.396354	NaN	1735924.379826	1735924.89632103
41	19	1	0	90	36.1581920903955	36.241610738255	23	0.766721376059577	2	10	2	NaN	2	3	0.07020130164029	1	1	NaN	55	1	55	2	121	221	321	NaN	521	0.191587169887498	2	1	NaN	1735926.5967006	NaN	1735927.5801056	1735928.09664453
41	19	1	0	90	36.1581920903955	36.241610738255	11	0.366692832028493	2	7	2	NaN	2	3	0.07020130164029	1	1	NaN	56	1	56	2	121	221	321	NaN	521	0.178667322499678	2	1	NaN	1735929.1136023	NaN	1735930.0969723	1735930.61356218
41	19	1	0	90	36.1581920903955	36.241610738255	17	0.566707104044035	2	10	1	NaN	2	5	0.07020130164029	1	1	NaN	57	1	57	2	121	221	321	NaN	521	0.262692769989371	2	1	NaN	1735931.6138587	NaN	1735932.5972597	1735933.11380153
41	19	1	0	90	36.1581920903955	36.241610738255	24	0.800057088062167	2	5	4	NaN	1	4	0.07020130164029	1	1	NaN	58	1	58	2	121	221	321	NaN	521	0.0104477647691965	1	1	NaN	1735934.1974284	NaN	1735935.1808547	1735935.69738714
41	19	1	0	90	36.1581920903955	36.241610738255	11	0.366692832028493	2	12	3	NaN	2	4	0.07020130164029	1	1	NaN	59	1	59	2	121	221	321	NaN	521	0.321934669977054	2	1	NaN	1735936.514193	NaN	1735937.4977364	1735938.01428563
41	19	1	0	90	36.1581920903955	36.241610738255	12	0.400028544031084	2	6	5	NaN	1	5	0.07020130164029	1	1	NaN	60	1	60	2	121	221	321	NaN	521	0.0104091700632125	1	1	NaN	1735939.1479384	NaN	1735940.1313211	1735940.64788053
41	19	1	0	90	36.1581920903955	36.241610738255	15	0.500035680038854	2	9	6	NaN	2	4	0.07020130164029	1	1	NaN	61	1	61	2	121	221	321	NaN	521	0.010410469956696	2	1	NaN	1735941.4815108	NaN	1735942.4648952	1735942.98144003
41	19	1	0	90	36.1581920903955	36.241610738255	7	0.233349984018132	2	1	2	NaN	1	5	0.07020130164029	1	1	NaN	62	1	62	2	121	221	321	NaN	521	0.0291833851952106	1	1	NaN	1735943.8150653	NaN	1735944.798454	1735945.31500901
41	19	1	0	90	36.1581920903955	36.241610738255	16	0.533371392041445	2	5	6	NaN	1	4	0.07020130164029	1	1	NaN	63	1	63	2	121	221	321	NaN	521	0.0102801425382495	1	1	NaN	1735946.1652944	NaN	1735947.1486907	1735947.66523976
41	19	1	0	90	36.1581920903955	36.241610738255	11	0.366692832028493	2	9	4	NaN	2	5	0.07020130164029	1	1	NaN	64	2	1	2	121	221	321	NaN	521	0.678145070094615	2	1	NaN	1735951.5824777	NaN	1735952.5658841	1735953.08242423
41	19	1	0	90	36.1581920903955	36.241610738255	20	0.666714240051806	2	6	6	NaN	1	3	0.07020130164029	1	1	NaN	65	2	2	2	121	221	321	NaN	521	0.0934626224916428	1	1	NaN	1735954.5826723	NaN	1735955.5661607	1735956.08272038
41	19	1	0	90	36.1581920903955	36.241610738255	6	0.200014272015542	2	9	5	NaN	2	5	0.07020130164029	1	1	NaN	66	2	3	2	121	221	321	NaN	521	0.0103911224287003	2	1	NaN	1735956.9830225	NaN	1735957.9664167	1735958.48296648
41	19	1	0	90	36.1581920903955	36.241610738255	10	0.333357120025903	2	3	2	NaN	1	3	0.07020130164029	1	1	NaN	67	2	4	2	121	221	321	NaN	521	0.0104181698989123	1	1	NaN	1735959.2999067	NaN	1735960.2832924	1735960.79985993
41	19	1	0	90	36.1581920903955	36.241610738255	23	0.766721376059577	2	10	1	NaN	2	3	0.07020130164029	1	1	NaN	68	2	5	2	121	221	321	NaN	521	0.851807669969276	2	1	NaN	1735961.6166674	NaN	1735962.600205	1735963.11675053
41	19	1	0	90	36.1581920903955	36.241610738255	25	0.833392800064757	2	1	4	NaN	1	4	0.07020130164029	1	1	NaN	69	2	6	2	121	221	321	NaN	521	0.164442322682589	1	1	NaN	1735964.7837749	NaN	1735965.7671829	1735966.28372518
41	19	1	0	90	36.1581920903955	36.241610738255	16	0.533371392041445	2	11	3	NaN	2	5	0.07020130164029	1	1	NaN	70	2	7	2	121	221	321	NaN	521	0.640950917731971	2	1	NaN	1735967.2673516	NaN	1735968.2507622	1735968.76729708
41	19	1	0	90	36.1581920903955	36.241610738255	25	0.833392800064757	2	12	6	NaN	2	3	0.07020130164029	1	1	NaN	71	2	8	2	121	221	321	NaN	521	0.650327222654596	2	1	NaN	1735970.2343152	NaN	1735971.2177004	1735971.73426678
41	19	1	0	90	36.1581920903955	36.241610738255	21	0.700049952054396	2	11	1	NaN	2	4	0.07020130164029	1	1	NaN	72	2	9	2	121	221	321	NaN	521	0.0103951224591583	1	0	NaN	1735973.2012775	NaN	1735974.184673	1735974.70122348
41	19	1	0	90	36.1581920903955	36.241610738255	6	0.200014272015542	2	11	5	NaN	2	3	0.07020130164029	1	1	NaN	73	2	10	2	121	221	321	NaN	521	0.0104267175775021	2	1	NaN	1735975.5348407	NaN	1735976.5182133	1735977.03477328
41	19	1	0	90	36.1581920903955	36.241610738255	16	0.533371392041445	2	4	4	NaN	1	5	0.07020130164029	1	1	NaN	74	2	11	2	121	221	321	NaN	521	0.0103945226874202	1	1	NaN	1735977.8684119	NaN	1735978.8517938	1735979.36834968
41	19	1	0	90	36.1581920903955	36.241610738255	14	0.466699968036264	2	6	5	NaN	1	3	0.07020130164029	1	1	NaN	75	2	12	2	121	221	321	NaN	521	0.0104300174862146	1	1	NaN	1735980.2019506	NaN	1735981.1853545	1735981.70190688
41	19	1	0	90	36.1581920903955	36.241610738255	19	0.633378528049216	2	2	5	NaN	1	3	0.07020130164029	1	1	NaN	76	2	13	2	121	221	321	NaN	521	0.0104051225353032	1	1	NaN	1735982.5355306	NaN	1735983.518919	1735984.03547138
41	19	1	0	90	36.1581920903955	36.241610738255	20	0.666714240051806	2	3	4	NaN	1	3	0.07020130164029	1	1	NaN	77	2	14	2	121	221	321	NaN	521	0.0104240700602531	1	1	NaN	1735984.869165	NaN	1735985.8524702	1735986.36902963
41	19	1	0	90	36.1581920903955	36.241610738255	8	0.266685696020722	2	12	4	NaN	2	5	0.07020130164029	1	1	NaN	78	2	15	2	121	221	321	NaN	521	0.0104098699521273	2	1	NaN	1735987.1858414	NaN	1735988.1693811	1735988.68592193
41	19	1	0	90	36.1581920903955	36.241610738255	15	0.500035680038854	2	11	2	NaN	2	4	0.07020130164029	1	1	NaN	79	2	16	2	121	221	321	NaN	521	0.0104196700267494	1	0	NaN	1735989.5028856	NaN	1735990.4862561	1735991.00281433
41	19	1	0	90	36.1581920903955	36.241610738255	24	0.800057088062167	2	7	6	NaN	2	4	0.07020130164029	1	1	NaN	80	2	17	2	121	221	321	NaN	521	0.0104171701241285	2	1	NaN	1735991.8364509	NaN	1735992.8198177	1735993.33637283
41	19	1	0	90	36.1581920903955	36.241610738255	17	0.566707104044035	2	8	5	NaN	2	4	0.07020130164029	1	1	NaN	81	2	18	2	121	221	321	NaN	521	0.0104258174542338	2	1	NaN	1735994.153295	NaN	1735995.1367101	1735995.65327078
41	19	1	0	90	36.1581920903955	36.241610738255	7	0.233349984018132	2	7	4	NaN	2	5	0.07020130164029	1	1	NaN	82	2	19	2	121	221	321	NaN	521	0.869257022626698	2	1	NaN	1735996.4868842	NaN	1735997.4702457	1735997.98683678
41	19	1	0	90	36.1581920903955	36.241610738255	0	0	1	3	3	NaN	1	4	0.07020130164029	1	1	NaN	83	2	20	2	111	211	311	NaN	511	0.0104043225292116	1	1	NaN	1735999.6705483	NaN	1736000.6539364	1736001.17047798
41	19	1	0	90	36.1581920903955	36.241610738255	9	0.300021408023313	2	10	3	NaN	2	5	0.07020130164029	1	1	NaN	84	2	21	2	121	221	321	NaN	521	0.0104263175744563	2	1	NaN	1736001.9874146	NaN	1736002.970832	1736003.48737938
41	19	1	0	90	36.1581920903955	36.241610738255	18	0.600042816046625	2	7	3	NaN	2	3	0.07020130164029	1	1	NaN	85	2	22	2	121	221	321	NaN	521	0.291307722683996	1	0	NaN	1736004.3210037	NaN	1736005.3043733	1736005.82093888
41	19	1	0	90	36.1581920903955	36.241610738255	16	0.533371392041445	2	2	5	NaN	1	4	0.07020130164029	1	1	NaN	86	2	23	2	121	221	321	NaN	521	0.0103952228091657	1	1	NaN	1736006.9212419	NaN	1736007.9046534	1736008.42120128
41	19	1	0	90	36.1581920903955	36.241610738255	8	0.266685696020722	2	8	2	NaN	2	5	0.07020130164029	1	1	NaN	87	2	24	2	121	221	321	NaN	521	0.010424617677927	1	0	NaN	1736009.2548229	NaN	1736010.2382042	1736010.75475398
41	19	1	0	90	36.1581920903955	36.241610738255	12	0.400028544031084	2	2	6	NaN	1	3	0.07020130164029	1	1	NaN	88	2	25	2	121	221	321	NaN	521	0.0104422175791115	1	1	NaN	1736011.5882415	NaN	1736012.5717616	1736013.08831228
41	19	1	0	90	36.1581920903955	36.241610738255	19	0.633378528049216	2	7	6	NaN	2	5	0.07020130164029	1	1	NaN	89	2	26	2	121	221	321	NaN	521	0.0104223175439984	2	1	NaN	1736013.9052705	NaN	1736014.8886684	1736015.40521738
41	19	1	0	90	36.1581920903955	36.241610738255	11	0.366692832028493	2	3	4	NaN	1	3	0.07020130164029	1	1	NaN	90	2	27	2	121	221	321	NaN	521	0.0103922227863222	1	1	NaN	1736016.2221756	NaN	1736017.2055786	1736017.72211228
41	19	1	0	90	36.1581920903955	36.241610738255	17	0.566707104044035	2	8	6	NaN	2	3	0.07020130164029	1	1	NaN	91	2	28	2	121	221	321	NaN	521	0.0104181698989123	2	1	NaN	1736018.5557268	NaN	1736019.539102	1736020.05566343
41	19	1	0	90	36.1581920903955	36.241610738255	18	0.600042816046625	2	8	1	NaN	2	4	0.07020130164029	1	1	NaN	92	2	29	2	121	221	321	NaN	521	0.0104107698425651	2	1	NaN	1736020.8892926	NaN	1736021.8726903	1736022.38922823
41	19	1	0	90	36.1581920903955	36.241610738255	23	0.766721376059577	2	6	3	NaN	1	3	0.07020130164029	1	1	NaN	93	2	30	2	121	221	321	NaN	521	0.010329432785511	1	1	NaN	1736023.6228996	NaN	1736024.6062911	1736025.12283047
41	19	1	0	90	36.1581920903955	36.241610738255	18	0.600042816046625	2	2	6	NaN	1	4	0.07020130164029	1	1	NaN	94	2	31	2	121	221	321	NaN	521	0.0104006226174533	1	1	NaN	1736025.9564359	NaN	1736026.9398205	1736027.45640018
41	19	1	0	90	36.1581920903955	36.241610738255	7	0.233349984018132	2	5	3	NaN	1	4	0.07020130164029	1	1	NaN	95	2	32	2	121	221	321	NaN	521	0.0104222700465471	1	1	NaN	1736028.2733549	NaN	1736029.2567342	1736029.77329703
41	19	1	0	90	36.1581920903955	36.241610738255	21	0.700049952054396	2	6	3	NaN	1	5	0.07020130164029	1	1	NaN	96	2	33	2	121	221	321	NaN	521	0.0103537801187485	1	1	NaN	1736030.6067743	NaN	1736031.5903089	1736032.10685942
41	19	1	0	90	36.1581920903955	36.241610738255	16	0.533371392041445	2	10	3	NaN	2	5	0.07020130164029	1	1	NaN	97	2	34	2	121	221	321	NaN	521	0.264142169849947	2	1	NaN	1736032.9404638	NaN	1736033.9238718	1736034.44042133
41	19	1	0	90	36.1581920903955	36.241610738255	14	0.466699968036264	2	8	6	NaN	2	4	0.07020130164029	1	1	NaN	98	2	35	2	121	221	321	NaN	521	0.272705322597176	1	0	NaN	1736035.524054	NaN	1736036.5074427	1736037.02400348
41	19	1	0	90	36.1581920903955	36.241610738255	11	0.366692832028493	2	5	2	NaN	1	3	0.07020130164029	1	1	NaN	99	2	36	2	121	221	321	NaN	521	0.232815169962123	1	1	NaN	1736038.107641	NaN	1736039.0910277	1736039.60759503
41	19	1	0	90	36.1581920903955	36.241610738255	6	0.200014272015542	2	12	6	NaN	2	4	0.07020130164029	1	1	NaN	100	2	37	2	121	221	321	NaN	521	0.194770422531292	2	1	NaN	1736040.6578928	NaN	1736041.6412936	1736042.15784658
41	19	1	0	90	36.1581920903955	36.241610738255	0	0	1	1	1	NaN	1	3	0.07020130164029	1	1	NaN	101	2	38	2	111	211	311	NaN	511	0.213696169899777	1	1	NaN	1736043.1748155	NaN	1736044.1582815	1736044.67475783
41	19	1	0	90	36.1581920903955	36.241610738255	25	0.833392800064757	2	4	3	NaN	1	5	0.07020130164029	1	1	NaN	102	2	39	2	121	221	321	NaN	521	0.224125375039876	1	1	NaN	1736045.7083996	NaN	1736046.6917798	1736047.20833832
41	19	1	0	90	36.1581920903955	36.241610738255	7	0.233349984018132	2	7	2	NaN	2	3	0.07020130164029	1	1	NaN	103	2	40	2	121	221	321	NaN	521	0.122454022523016	2	1	NaN	1736048.2419754	NaN	1736049.2253679	1736049.74192008
41	19	1	0	90	36.1581920903955	36.241610738255	25	0.833392800064757	2	7	4	NaN	2	4	0.07020130164029	1	1	NaN	104	2	41	2	121	221	321	NaN	521	0.15250372258015	2	1	NaN	1736050.6921142	NaN	1736051.6756116	1736052.19216048
41	19	1	0	90	36.1581920903955	36.241610738255	19	0.633378528049216	2	11	6	NaN	2	4	0.07020130164029	1	1	NaN	105	2	42	2	121	221	321	NaN	521	0.0103928227908909	2	1	NaN	1736053.1591234	NaN	1736054.1425161	1736054.65906348
41	19	1	0	90	36.1581920903955	36.241610738255	25	0.833392800064757	2	3	6	NaN	1	5	0.07020130164029	1	1	NaN	106	2	43	2	121	221	321	NaN	521	0.0103912751656026	1	1	NaN	1736055.476018	NaN	1736056.4594129	1736056.97596662
41	19	1	0	90	36.1581920903955	36.241610738255	10	0.333357120025903	2	1	5	NaN	1	4	0.07020130164029	1	1	NaN	107	2	44	2	121	221	321	NaN	521	0.0104108699597418	1	1	NaN	1736057.809579	NaN	1736058.7928708	1736059.30952603
41	19	1	0	90	36.1581920903955	36.241610738255	24	0.800057088062167	2	9	2	NaN	2	3	0.07020130164029	1	1	NaN	108	2	45	2	121	221	321	NaN	521	0.0103923226706684	2	1	NaN	1736060.1431417	NaN	1736061.1265317	1736061.64308968
41	19	1	0	90	36.1581920903955	36.241610738255	15	0.500035680038854	2	4	5	NaN	1	5	0.07020130164029	1	1	NaN	109	2	46	2	121	221	321	NaN	521	0.0104059700388461	1	1	NaN	1736062.4600282	NaN	1736063.4434199	1736063.95997273
41	19	1	0	90	36.1581920903955	36.241610738255	17	0.566707104044035	2	6	5	NaN	1	3	0.07020130164029	1	1	NaN	110	2	47	2	121	221	321	NaN	521	0.0103969224728644	1	1	NaN	1736064.7935976	NaN	1736065.7770095	1736066.29354818
41	19	1	0	90	36.1581920903955	36.241610738255	25	0.833392800064757	2	8	3	NaN	2	5	0.07020130164029	1	1	NaN	111	2	48	2	121	221	321	NaN	521	0.237291669938713	2	1	NaN	1736067.1272611	NaN	1736068.1105447	1736068.62710483
41	19	1	0	90	36.1581920903955	36.241610738255	17	0.566707104044035	2	5	5	NaN	1	5	0.07020130164029	1	1	NaN	112	2	49	2	121	221	321	NaN	521	0.24741037003696	1	1	NaN	1736069.6774249	NaN	1736070.6608125	1736071.17735383
41	19	1	0	90	36.1581920903955	36.241610738255	13	0.433364256033674	2	10	2	NaN	2	3	0.07020130164029	1	1	NaN	113	2	50	2	121	221	321	NaN	521	0.0104118227027357	2	1	NaN	1736072.244295	NaN	1736073.2277296	1736073.74428058
41	19	1	0	90	36.1581920903955	36.241610738255	20	0.666714240051806	2	10	5	NaN	2	3	0.07020130164029	1	1	NaN	114	2	51	2	121	221	321	NaN	521	0.010422617662698	2	1	NaN	1736074.5778902	NaN	1736075.5612943	1736076.07783098
41	19	1	0	90	36.1581920903955	36.241610738255	22	0.733385664056987	2	5	1	NaN	1	4	0.07020130164029	1	1	NaN	115	2	52	2	121	221	321	NaN	521	0.0103034374769777	1	1	NaN	1736076.8947814	NaN	1736077.8781744	1736078.39472966
41	19	1	0	90	36.1581920903955	36.241610738255	0	0	1	12	2	NaN	2	4	0.07020130164029	1	1	NaN	116	2	53	2	111	211	311	NaN	511	0.0104076699353755	2	1	NaN	1736079.2116074	NaN	1736080.1950815	1736080.71161953
41	19	1	0	90	36.1581920903955	36.241610738255	21	0.700049952054396	2	3	2	NaN	1	5	0.07020130164029	1	1	NaN	117	2	54	2	121	221	321	NaN	521	0.0513195700477809	1	1	NaN	1736081.5452476	NaN	1736082.5286951	1736083.04518073
41	19	1	0	90	36.1581920903955	36.241610738255	7	0.233349984018132	2	3	3	NaN	1	5	0.07020130164029	1	1	NaN	118	2	55	2	121	221	321	NaN	521	0.0103019375819713	1	1	NaN	1736083.9121447	NaN	1736084.89554	1736085.41209386
41	19	1	0	90	36.1581920903955	36.241610738255	6	0.200014272015542	2	7	2	NaN	2	4	0.07020130164029	1	1	NaN	119	2	56	2	121	221	321	NaN	521	0.0104279175866395	2	1	NaN	1736086.228898	NaN	1736087.2124139	1736087.72898368
41	19	1	0	90	36.1581920903955	36.241610738255	14	0.466699968036264	2	2	1	NaN	1	4	0.07020130164029	1	1	NaN	120	2	57	2	121	221	321	NaN	521	0.0102528950665146	1	1	NaN	1736088.5459317	NaN	1736089.5293346	1736090.0458804
41	19	1	0	90	36.1581920903955	36.241610738255	22	0.733385664056987	2	11	4	NaN	2	3	0.07020130164029	1	1	NaN	121	2	58	2	121	221	321	NaN	521	0.101020322646946	2	1	NaN	1736090.879492	NaN	1736091.8628855	1736092.37945438
41	19	1	0	90	36.1581920903955	36.241610738255	0	0	1	10	2	NaN	2	4	0.07020130164029	1	1	NaN	122	2	59	2	111	211	311	NaN	511	0.0104220700450242	2	1	NaN	1736093.2963939	NaN	1736094.2797781	1736094.79634583
41	19	1	0	90	36.1581920903955	36.241610738255	6	0.200014272015542	2	9	4	NaN	2	5	0.07020130164029	1	1	NaN	123	2	60	2	121	221	321	NaN	521	0.0104109700769186	1	0	NaN	1736095.6299608	NaN	1736096.6133448	1736097.12990553
41	19	1	0	90	36.1581920903955	36.241610738255	18	0.600042816046625	2	12	1	NaN	2	4	0.07020130164029	1	1	NaN	124	2	61	2	121	221	321	NaN	521	0.162807022454217	2	1	NaN	1736098.5135512	NaN	1736099.4969854	1736100.01352058
41	19	1	0	90	36.1581920903955	36.241610738255	15	0.500035680038854	2	1	2	NaN	1	5	0.07020130164029	1	1	NaN	125	2	62	2	121	221	321	NaN	521	0.319278422743082	1	1	NaN	1736100.9971444	NaN	1736101.9805318	1736102.49709668
41	19	1	0	90	36.1581920903955	36.241610738255	10	0.333357120025903	2	9	4	NaN	2	3	0.07020130164029	1	1	NaN	126	2	63	2	121	221	321	NaN	521	2.24825352244079	2	1	NaN	1736103.7639633	NaN	1736104.7474903	1736105.26402968
41	19	1	0	90	36.1581920903955	36.241610738255	10	0.333357120025903	2	3	5	NaN	1	3	0.07020130164029	1	1	NaN	127	3	1	2	121	221	321	NaN	521	0.460322675062343	1	1	NaN	1736110.4480606	NaN	1736111.4314729	1736111.94802702
41	19	1	0	90	36.1581920903955	36.241610738255	13	0.433364256033674	2	6	2	NaN	1	3	0.07020130164029	1	1	NaN	128	3	2	2	121	221	321	NaN	521	0.189073822693899	1	1	NaN	1736113.2316964	NaN	1736114.2150699	1736114.73162788
41	19	1	0	90	36.1581920903955	36.241610738255	10	0.333357120025903	2	10	5	NaN	2	4	0.07020130164029	1	1	NaN	129	3	3	2	121	221	321	NaN	521	0.296857370063663	2	1	NaN	1736115.7319388	NaN	1736116.7153329	1736117.23188353
41	19	1	0	90	36.1581920903955	36.241610738255	8	0.266685696020722	2	7	2	NaN	2	4	0.07020130164029	1	1	NaN	130	3	4	2	121	221	321	NaN	521	0.0103919226676226	2	1	NaN	1736118.3488523	NaN	1736119.3322411	1736119.84880248
41	19	1	0	90	36.1581920903955	36.241610738255	6	0.200014272015542	2	11	3	NaN	2	3	0.07020130164029	1	1	NaN	131	3	5	2	121	221	321	NaN	521	0.137830122606829	2	1	NaN	1736120.6823296	NaN	1736121.6658164	1736122.18236618
41	19	1	0	90	36.1581920903955	36.241610738255	16	0.533371392041445	2	10	5	NaN	2	4	0.07020130164029	1	1	NaN	132	3	6	2	121	221	321	NaN	521	0.391947822412476	2	1	NaN	1736123.1326637	NaN	1736124.1160415	1736124.63260808
41	19	1	0	90	36.1581920903955	36.241610738255	15	0.500035680038854	2	3	6	NaN	1	5	0.07020130164029	1	1	NaN	133	3	7	2	121	221	321	NaN	521	0.0104120699688792	1	1	NaN	1736125.8495903	NaN	1736126.8329861	1736127.34953803
41	19	1	0	90	36.1581920903955	36.241610738255	21	0.700049952054396	2	9	1	NaN	2	5	0.07020130164029	1	1	NaN	134	3	8	2	121	221	321	NaN	521	0.0104093698319048	2	1	NaN	1736128.3164779	NaN	1736129.299885	1736129.81643613
41	19	1	0	90	36.1581920903955	36.241610738255	10	0.333357120025903	2	11	5	NaN	2	4	0.07020130164029	1	1	NaN	135	3	9	2	121	221	321	NaN	521	0.0103788750711828	2	1	NaN	1736130.650049	NaN	1736131.6334637	1736132.15001122
41	19	1	0	90	36.1581920903955	36.241610738255	10	0.333357120025903	2	4	1	NaN	1	5	0.07020130164029	1	1	NaN	136	3	10	2	121	221	321	NaN	521	0.0296859699301422	1	1	NaN	1736132.9669552	NaN	1736133.9503455	1736134.46689933
41	19	1	0	90	36.1581920903955	36.241610738255	8	0.266685696020722	2	7	4	NaN	2	5	0.07020130164029	1	1	NaN	137	3	11	2	121	221	321	NaN	521	0.0103866225108504	2	1	NaN	1736135.3171515	NaN	1736136.3006097	1736136.81714528
41	19	1	0	90	36.1581920903955	36.241610738255	24	0.800057088062167	2	10	3	NaN	2	4	0.07020130164029	1	1	NaN	138	3	12	2	121	221	321	NaN	521	0.081715622683987	1	0	NaN	1736138.0506571	NaN	1736139.034224	1736139.55072878
41	19	1	0	90	36.1581920903955	36.241610738255	19	0.633378528049216	2	4	3	NaN	1	5	0.07020130164029	1	1	NaN	139	3	13	2	121	221	321	NaN	521	0.497509722597897	1	1	NaN	1736140.4510137	NaN	1736141.4344849	1736141.95097238
41	19	1	0	90	36.1581920903955	36.241610738255	9	0.300021408023313	2	1	6	NaN	1	4	0.07020130164029	1	1	NaN	140	3	14	2	121	221	321	NaN	521	0.232771970098838	1	1	NaN	1736143.2678908	NaN	1736144.2513482	1736144.76790663
41	19	1	0	90	36.1581920903955	36.241610738255	22	0.733385664056987	2	5	4	NaN	1	3	0.07020130164029	1	1	NaN	141	3	15	2	121	221	321	NaN	521	0.394300922518596	1	1	NaN	1736145.818197	NaN	1736146.8016222	1736147.31816768
41	19	1	0	90	36.1581920903955	36.241610738255	15	0.500035680038854	2	1	5	NaN	1	3	0.07020130164029	1	1	NaN	142	3	16	2	121	221	321	NaN	521	0.237473600078374	1	1	NaN	1736148.5351566	NaN	1736149.5185403	1736150.0351046
41	19	1	0	90	36.1581920903955	36.241610738255	23	0.766721376059577	2	9	2	NaN	2	3	0.07020130164029	1	1	NaN	143	3	17	2	121	221	321	NaN	521	0.0472217698115855	1	0	NaN	1736151.0854271	NaN	1736152.0687929	1736152.58536153
41	19	1	0	90	36.1581920903955	36.241610738255	19	0.633378528049216	2	9	1	NaN	2	3	0.07020130164029	1	1	NaN	144	3	18	2	121	221	321	NaN	521	0.272584422724321	2	1	NaN	1736153.4522974	NaN	1736154.4356822	1736154.95224808
41	19	1	0	90	36.1581920903955	36.241610738255	7	0.233349984018132	2	9	2	NaN	2	4	0.07020130164029	1	1	NaN	145	3	19	2	121	221	321	NaN	521	0.0104092699475586	2	1	NaN	1736156.0692237	NaN	1736157.0526258	1736157.56916113
41	19	1	0	90	36.1581920903955	36.241610738255	25	0.833392800064757	2	10	3	NaN	2	5	0.07020130164029	1	1	NaN	146	3	20	2	121	221	321	NaN	521	0.276088222628459	2	1	NaN	1736158.7528187	NaN	1736159.7362073	1736160.25275768
41	19	1	0	90	36.1581920903955	36.241610738255	9	0.300021408023313	2	3	3	NaN	1	5	0.07020130164029	1	1	NaN	147	3	21	2	121	221	321	NaN	521	0.0104145698715001	1	1	NaN	1736161.3530532	NaN	1736162.336473	1736162.85302423
41	19	1	0	90	36.1581920903955	36.241610738255	11	0.366692832028493	2	3	1	NaN	1	3	0.07020130164029	1	1	NaN	148	3	22	2	121	221	321	NaN	521	0.0104112699627876	1	1	NaN	1736163.6866518	NaN	1736164.6700242	1736165.18658333
41	19	1	0	90	36.1581920903955	36.241610738255	12	0.400028544031084	2	3	2	NaN	1	5	0.07020130164029	1	1	NaN	149	3	23	2	121	221	321	NaN	521	0.999066070187837	1	1	NaN	1736166.253549	NaN	1736167.2369573	1736167.75350143
41	19	1	0	90	36.1581920903955	36.241610738255	18	0.600042816046625	2	8	2	NaN	2	3	0.07020130164029	1	1	NaN	150	3	24	2	121	221	321	NaN	521	0.0659919225145131	2	1	NaN	1736169.5704173	NaN	1736170.5539339	1736171.07049328
41	19	1	0	90	36.1581920903955	36.241610738255	10	0.333357120025903	2	5	2	NaN	1	4	0.07020130164029	1	1	NaN	151	3	25	2	121	221	321	NaN	521	0.0585220700595528	2	0	NaN	1736171.9541226	NaN	1736172.9375104	1736173.45406523
41	19	1	0	90	36.1581920903955	36.241610738255	20	0.666714240051806	2	6	2	NaN	1	3	0.07020130164029	1	1	NaN	152	3	26	2	121	221	321	NaN	521	0.179173942655325	1	1	NaN	1736174.3376832	NaN	1736175.321071	1736175.83763806
41	19	1	0	90	36.1581920903955	36.241610738255	13	0.433364256033674	2	2	2	NaN	1	4	0.07020130164029	1	1	NaN	153	3	27	2	121	221	321	NaN	521	0.0104228700511158	1	1	NaN	1736176.9544718	NaN	1736177.9380042	1736178.45454913
41	19	1	0	90	36.1581920903955	36.241610738255	13	0.433364256033674	2	4	4	NaN	1	4	0.07020130164029	1	1	NaN	154	3	28	2	121	221	321	NaN	521	0.0203307701740414	1	1	NaN	1736179.2881634	NaN	1736180.2715621	1736180.78811663
41	19	1	0	90	36.1581920903955	36.241610738255	11	0.366692832028493	2	8	5	NaN	2	4	0.07020130164029	1	1	NaN	155	3	29	2	121	221	321	NaN	521	0.0103969224728644	2	1	NaN	1736181.6216257	NaN	1736182.6051306	1736183.12167978
41	19	1	0	90	36.1581920903955	36.241610738255	10	0.333357120025903	2	9	3	NaN	2	3	0.07020130164029	1	1	NaN	156	3	30	2	121	221	321	NaN	521	0.0104291224852204	1	0	NaN	1736183.938488	NaN	1736184.9220243	1736185.43856958
41	19	1	0	90	36.1581920903955	36.241610738255	7	0.233349984018132	2	9	5	NaN	2	4	0.07020130164029	1	1	NaN	157	3	31	2	121	221	321	NaN	521	0.0104389174375683	2	1	NaN	1736186.2721757	NaN	1736187.2555797	1736187.77213098
41	19	1	0	90	36.1581920903955	36.241610738255	21	0.700049952054396	2	5	3	NaN	1	5	0.07020130164029	1	1	NaN	158	3	32	2	121	221	321	NaN	521	0.0103929226752371	1	1	NaN	1736188.6056148	NaN	1736189.5891661	1736190.10568928
41	19	1	0	90	36.1581920903955	36.241610738255	21	0.700049952054396	2	1	5	NaN	1	5	0.07020130164029	1	1	NaN	159	3	33	2	121	221	321	NaN	521	0.0103886225260794	1	1	NaN	1736190.9225177	NaN	1736191.9060399	1736192.42260538
41	19	1	0	90	36.1581920903955	36.241610738255	0	0	1	7	6	NaN	2	4	0.07020130164029	1	1	NaN	160	3	34	2	111	211	311	NaN	511	0.116776622598991	2	1	NaN	1736193.2562385	NaN	1736194.2395954	1736194.75614708
41	19	1	0	90	36.1581920903955	36.241610738255	6	0.200014272015542	2	10	4	NaN	2	5	0.07020130164029	1	1	NaN	161	3	35	2	121	221	321	NaN	521	1.82671141764149	1	0	NaN	1736195.6897814	NaN	1736196.6731685	1736197.18972628
41	19	1	0	90	36.1581920903955	36.241610738255	0	0	1	8	6	NaN	2	4	0.07020130164029	1	1	NaN	162	3	36	2	111	211	311	NaN	511	0.388015270000324	2	1	NaN	1736200.4567783	NaN	1736201.4402953	1736201.95686133
41	19	1	0	90	36.1581920903955	36.241610738255	14	0.466699968036264	2	5	6	NaN	1	5	0.07020130164029	1	1	NaN	163	3	37	2	121	221	321	NaN	521	0.0103908227756619	1	1	NaN	1736203.1571819	NaN	1736204.1405808	1736204.65712318
41	19	1	0	90	36.1581920903955	36.241610738255	16	0.533371392041445	2	2	1	NaN	1	4	0.07020130164029	1	1	NaN	164	3	38	2	121	221	321	NaN	521	0.0104082699399441	1	1	NaN	1736205.4740692	NaN	1736206.4575042	1736206.97402453
41	19	1	0	90	36.1581920903955	36.241610738255	10	0.333357120025903	2	12	4	NaN	2	5	0.07020130164029	1	1	NaN	165	3	39	2	121	221	321	NaN	521	0.010493170004338	2	1	NaN	1736207.7909744	NaN	1736208.774369	1736209.29093193
41	19	1	0	90	36.1581920903955	36.241610738255	10	0.333357120025903	2	8	5	NaN	2	4	0.07020130164029	1	1	NaN	166	3	40	2	121	221	321	NaN	521	0.672020422527567	2	1	NaN	1736210.1245242	NaN	1736211.1079212	1736211.62447488
41	19	1	0	90	36.1581920903955	36.241610738255	18	0.600042816046625	2	4	5	NaN	1	4	0.07020130164029	1	1	NaN	167	3	41	2	121	221	321	NaN	521	0.01040417002514	1	1	NaN	1736213.9914379	NaN	1736214.9748935	1736215.49152603
41	19	1	0	90	36.1581920903955	36.241610738255	17	0.566707104044035	2	4	2	NaN	1	4	0.07020130164029	1	1	NaN	168	3	42	2	121	221	321	NaN	521	0.288357522571459	1	1	NaN	1736216.3084789	NaN	1736217.29186	1736217.80841668
41	19	1	0	90	36.1581920903955	36.241610738255	13	0.433364256033674	2	12	5	NaN	2	3	0.07020130164029	1	1	NaN	169	3	43	2	121	221	321	NaN	521	0.0104022226296365	2	1	NaN	1736218.9087191	NaN	1736219.8921466	1736220.40867328
41	19	1	0	90	36.1581920903955	36.241610738255	19	0.633378528049216	2	5	1	NaN	1	3	0.07020130164029	1	1	NaN	170	3	44	2	121	221	321	NaN	521	0.0104080699384212	2	0	NaN	1736221.2422765	NaN	1736222.2256796	1736222.74223753
41	19	1	0	90	36.1581920903955	36.241610738255	18	0.600042816046625	2	6	4	NaN	1	5	0.07020130164029	1	1	NaN	171	3	45	2	121	221	321	NaN	521	0.0104073700495064	1	1	NaN	1736223.575835	NaN	1736224.5592512	1736225.07579943
41	19	1	0	90	36.1581920903955	36.241610738255	9	0.300021408023313	2	11	2	NaN	2	5	0.07020130164029	1	1	NaN	172	3	46	2	121	221	321	NaN	521	0.0104061225429177	2	1	NaN	1736225.892757	NaN	1736226.8761316	1736227.39268548
41	19	1	0	90	36.1581920903955	36.241610738255	16	0.533371392041445	2	7	6	NaN	2	5	0.07020130164029	1	1	NaN	173	3	47	2	121	221	321	NaN	521	0.258302417583764	2	1	NaN	1736228.2263226	NaN	1736229.2097087	1736229.72624528
41	19	1	0	90	36.1581920903955	36.241610738255	18	0.600042816046625	2	11	2	NaN	2	5	0.07020130164029	1	1	NaN	174	3	48	2	121	221	321	NaN	521	0.203139522578567	1	0	NaN	1736230.8098849	NaN	1736231.7933245	1736232.30983288
41	19	1	0	90	36.1581920903955	36.241610738255	18	0.600042816046625	2	7	6	NaN	2	5	0.07020130164029	1	1	NaN	175	3	49	2	121	221	321	NaN	521	0.010395722463727	2	1	NaN	1736233.3268034	NaN	1736234.3102012	1736234.82675658
41	19	1	0	90	36.1581920903955	36.241610738255	15	0.500035680038854	2	6	4	NaN	1	3	0.07020130164029	1	1	NaN	176	3	50	2	121	221	321	NaN	521	0.0103927226737142	1	1	NaN	1736235.6436755	NaN	1736236.6270858	1736237.14364778
41	19	1	0	90	36.1581920903955	36.241610738255	23	0.766721376059577	2	7	4	NaN	2	3	0.07020130164029	1	1	NaN	177	3	51	2	121	221	321	NaN	521	1.18729586992413	2	1	NaN	1736237.9772677	NaN	1736238.9606633	1736239.47721463
41	19	1	0	90	36.1581920903955	36.241610738255	12	0.400028544031084	2	6	5	NaN	1	3	0.07020130164029	1	1	NaN	178	3	52	2	121	221	321	NaN	521	0.871624522609636	1	1	NaN	1736242.4610145	NaN	1736243.4444194	1736243.96097668
41	19	1	0	90	36.1581920903955	36.241610738255	23	0.766721376059577	2	1	1	NaN	1	4	0.07020130164029	1	1	NaN	179	3	53	2	121	221	321	NaN	521	0.524669922655448	1	1	NaN	1736245.7279889	NaN	1736246.7114223	1736247.22797478
41	19	1	0	90	36.1581920903955	36.241610738255	9	0.300021408023313	2	8	1	NaN	2	4	0.07020130164029	1	1	NaN	180	3	54	2	121	221	321	NaN	521	2.47508912254125	1	0	NaN	1736248.5616415	NaN	1736249.545028	1736250.06158318
41	19	1	0	90	36.1581920903955	36.241610738255	18	0.600042816046625	2	10	4	NaN	2	4	0.07020130164029	1	1	NaN	181	3	55	2	121	221	321	NaN	521	0.290923217544332	2	1	NaN	1736253.3621087	NaN	1736254.3455417	1736254.86205728
41	19	1	0	90	36.1581920903955	36.241610738255	14	0.466699968036264	2	1	4	NaN	1	3	0.07020130164029	1	1	NaN	182	3	56	2	121	221	321	NaN	521	0.106052770046517	1	1	NaN	1736255.9623558	NaN	1736256.9457533	1736257.46231173
41	19	1	0	90	36.1581920903955	36.241610738255	14	0.466699968036264	2	5	5	NaN	1	3	0.07020130164029	1	1	NaN	183	3	57	2	121	221	321	NaN	521	0.0654430699069053	1	1	NaN	1736258.3791116	NaN	1736259.3626557	1736259.87920313
41	19	1	0	90	36.1581920903955	36.241610738255	10	0.333357120025903	2	4	3	NaN	1	4	0.07020130164029	1	1	NaN	184	3	58	2	121	221	321	NaN	521	0.19381292257458	1	1	NaN	1736260.7627102	NaN	1736261.7462168	1736262.26277798
41	19	1	0	90	36.1581920903955	36.241610738255	15	0.500035680038854	2	9	5	NaN	2	3	0.07020130164029	1	1	NaN	185	3	59	2	121	221	321	NaN	521	0.24479447491467	2	1	NaN	1736263.2797565	NaN	1736264.2631371	1736264.77969813
41	19	1	0	90	36.1581920903955	36.241610738255	24	0.800057088062167	2	4	6	NaN	1	4	0.07020130164029	1	1	NaN	186	3	60	2	121	221	321	NaN	521	0.0103932225611061	1	1	NaN	1736265.8466696	NaN	1736266.8300543	1736267.34660668
41	19	1	0	90	36.1581920903955	36.241610738255	17	0.566707104044035	2	12	6	NaN	2	3	0.07020130164029	1	1	NaN	187	3	61	2	121	221	321	NaN	521	0.0103955226950347	2	1	NaN	1736268.1802328	NaN	1736269.1636174	1736269.68016668
41	19	1	0	90	36.1581920903955	36.241610738255	7	0.233349984018132	2	4	2	NaN	1	5	0.07020130164029	1	1	NaN	188	3	62	2	121	221	321	NaN	521	0.0104089700616896	1	1	NaN	1736270.4971309	NaN	1736271.4805147	1736271.99707293
41	19	1	0	90	36.1581920903955	36.241610738255	18	0.600042816046625	2	10	4	NaN	2	4	0.07020130164029	1	1	NaN	189	3	63	2	121	221	321	NaN	521	0.0104227701667696	2	1	NaN	1736272.8306715	NaN	1736273.8141311	1736274.33063233
41	19	1	0	90	36.1581920903955	36.241610738255	15	0.500035680038854	2	7	2	NaN	2	3	0.07020130164029	1	1	NaN	190	4	1	2	121	221	321	NaN	521	0.0104177698958665	2	1	NaN	1736282.5816018	NaN	1736283.5650409	1736284.08158663
41	19	1	0	90	36.1581920903955	36.241610738255	24	0.800057088062167	2	8	6	NaN	2	4	0.07020130164029	1	1	NaN	191	4	2	2	121	221	321	NaN	521	0.265425174962729	1	0	NaN	1736284.915207	NaN	1736285.8985893	1736286.41515413
41	19	1	0	90	36.1581920903955	36.241610738255	17	0.566707104044035	2	7	3	NaN	2	4	0.07020130164029	1	1	NaN	192	4	3	2	121	221	321	NaN	521	0.049382817465812	1	0	NaN	1736287.5154909	NaN	1736288.4988546	1736289.01540198
41	19	1	0	90	36.1581920903955	36.241610738255	8	0.266685696020722	2	9	2	NaN	2	5	0.07020130164029	1	1	NaN	193	4	4	2	121	221	321	NaN	521	0.0104050699155778	2	1	NaN	1736289.8822872	NaN	1736290.8657899	1736291.38229633
41	19	1	0	90	36.1581920903955	36.241610738255	10	0.333357120025903	2	10	3	NaN	2	5	0.07020130164029	1	1	NaN	194	4	5	2	121	221	321	NaN	521	0.0104210700374097	2	1	NaN	1736292.2159073	NaN	1736293.1993117	1736293.71586543
41	19	1	0	90	36.1581920903955	36.241610738255	24	0.800057088062167	2	1	1	NaN	1	5	0.07020130164029	1	1	NaN	195	4	6	2	121	221	321	NaN	521	0.183608222519979	1	1	NaN	1736294.549443	NaN	1736295.5329076	1736296.04943128
41	19	1	0	90	36.1581920903955	36.241610738255	8	0.266685696020722	2	8	4	NaN	2	3	0.07020130164029	1	1	NaN	196	4	7	2	121	221	321	NaN	521	0.0104064699262381	2	1	NaN	1736297.0497139	NaN	1736298.0330853	1736298.54967893
41	19	1	0	90	36.1581920903955	36.241610738255	10	0.333357120025903	2	7	5	NaN	2	3	0.07020130164029	1	1	NaN	197	4	8	2	121	221	321	NaN	521	0.0104019700083882	2	1	NaN	1736299.3666476	NaN	1736300.3500277	1736300.86656033
41	19	1	0	90	36.1581920903955	36.241610738255	20	0.666714240051806	2	3	2	NaN	1	3	0.07020130164029	1	1	NaN	198	4	9	2	121	221	321	NaN	521	0.472893669968471	1	1	NaN	1736301.7001935	NaN	1736302.6834564	1736303.20012943
41	19	1	0	90	36.1581920903955	36.241610738255	7	0.233349984018132	2	6	2	NaN	1	4	0.07020130164029	1	1	NaN	199	4	10	2	121	221	321	NaN	521	0.576944869942963	1	1	NaN	1736304.4837857	NaN	1736305.4672115	1736305.98374143
41	19	1	0	90	36.1581920903955	36.241610738255	7	0.233349984018132	2	8	3	NaN	2	5	0.07020130164029	1	1	NaN	200	4	11	2	121	221	321	NaN	521	0.0104079698212445	2	1	NaN	1736307.3840823	NaN	1736308.3674632	1736308.88401793
41	19	1	0	90	36.1581920903955	36.241610738255	10	0.333357120025903	2	11	6	NaN	2	5	0.07020130164029	1	1	NaN	201	4	12	2	121	221	321	NaN	521	1.05511312745512	2	1	NaN	1736309.7176364	NaN	1736310.7010299	1736311.21758657
41	19	1	0	90	36.1581920903955	36.241610738255	12	0.400028544031084	2	7	1	NaN	2	5	0.07020130164029	1	1	NaN	202	4	13	2	121	221	321	NaN	521	0.256457222625613	2	1	NaN	1736313.0846091	NaN	1736314.0680356	1736314.58458308
41	19	1	0	90	36.1581920903955	36.241610738255	24	0.800057088062167	2	12	6	NaN	2	4	0.07020130164029	1	1	NaN	203	4	14	2	121	221	321	NaN	521	0.0104025700129569	2	1	NaN	1736315.6515589	NaN	1736316.6349494	1736317.15150183
41	19	1	0	90	36.1581920903955	36.241610738255	8	0.266685696020722	2	1	4	NaN	1	3	0.07020130164029	1	1	NaN	204	4	15	2	121	221	321	NaN	521	0.603597469860688	1	1	NaN	1736317.9851206	NaN	1736318.9685144	1736319.48505923
41	19	1	0	90	36.1581920903955	36.241610738255	7	0.233349984018132	2	4	5	NaN	1	3	0.07020130164029	1	1	NaN	205	4	16	2	121	221	321	NaN	521	0.0104888698551804	1	1	NaN	1736320.902082	NaN	1736321.8854627	1736322.40200943
41	19	1	0	90	36.1581920903955	36.241610738255	16	0.533371392041445	2	8	2	NaN	2	5	0.07020130164029	1	1	NaN	206	4	17	2	121	221	321	NaN	521	0.0103933224454522	2	1	NaN	1736323.3023108	NaN	1736324.2857564	1736324.80225348
41	19	1	0	90	36.1581920903955	36.241610738255	14	0.466699968036264	2	3	5	NaN	1	4	0.07020130164029	1	1	NaN	207	4	18	2	121	221	321	NaN	521	0.0103425800334662	1	1	NaN	1736325.6358647	NaN	1736326.6192627	1736327.13581612
41	19	1	0	90	36.1581920903955	36.241610738255	21	0.700049952054396	2	6	1	NaN	1	4	0.07020130164029	1	1	NaN	208	4	19	2	121	221	321	NaN	521	0.0104059698060155	1	1	NaN	1736327.952763	NaN	1736328.9362141	1736329.45270643
41	19	1	0	90	36.1581920903955	36.241610738255	22	0.733385664056987	2	7	3	NaN	2	5	0.07020130164029	1	1	NaN	209	4	20	2	121	221	321	NaN	521	0.294766417471692	2	1	NaN	1736330.2863089	NaN	1736331.26971	1736331.78626848
41	19	1	0	90	36.1581920903955	36.241610738255	21	0.700049952054396	2	9	2	NaN	2	4	0.07020130164029	1	1	NaN	210	4	21	2	121	221	321	NaN	521	0.164808622561395	1	0	NaN	1736333.1198944	NaN	1736334.103338	1736334.61988608
41	19	1	0	90	36.1581920903955	36.241610738255	13	0.433364256033674	2	5	1	NaN	1	3	0.07020130164029	1	1	NaN	211	4	22	2	121	221	321	NaN	521	0.0104175698943436	1	1	NaN	1736335.6035293	NaN	1736336.58692	1736337.10345323
41	19	1	0	90	36.1581920903955	36.241610738255	13	0.433364256033674	2	11	4	NaN	2	3	0.07020130164029	1	1	NaN	212	4	23	2	121	221	321	NaN	521	0.260476069990546	1	0	NaN	1736337.9203971	NaN	1736338.9038041	1736339.42035013
41	19	1	0	90	36.1581920903955	36.241610738255	22	0.733385664056987	2	1	6	NaN	1	5	0.07020130164029	1	1	NaN	213	4	24	2	121	221	321	NaN	521	0.0103047948796302	1	1	NaN	1736340.5039994	NaN	1736341.4873807	1736342.00394871
41	19	1	0	90	36.1581920903955	36.241610738255	9	0.300021408023313	2	11	4	NaN	2	5	0.07020130164029	1	1	NaN	214	4	25	2	121	221	321	NaN	521	0.0104128699749708	2	1	NaN	1736342.8375654	NaN	1736343.8209526	1736344.33750043
41	19	1	0	90	36.1581920903955	36.241610738255	23	0.766721376059577	2	12	1	NaN	2	5	0.07020130164029	1	1	NaN	215	4	26	2	121	221	321	NaN	521	0.0104066701605916	2	1	NaN	1736345.4206958	NaN	1736346.4045349	1736346.92108213
41	19	1	0	90	36.1581920903955	36.241610738255	20	0.666714240051806	2	2	5	NaN	1	3	0.07020130164029	1	1	NaN	216	4	27	2	121	221	321	NaN	521	0.010414469987154	1	1	NaN	1736347.7547106	NaN	1736348.7380883	1736349.25465493
41	19	1	0	90	36.1581920903955	36.241610738255	15	0.500035680038854	2	7	2	NaN	2	3	0.07020130164029	1	1	NaN	217	4	28	2	121	221	321	NaN	521	0.0104063700418919	2	1	NaN	1736350.0882612	NaN	1736351.0716721	1736351.58820533
41	19	1	0	90	36.1581920903955	36.241610738255	22	0.733385664056987	2	1	3	NaN	1	3	0.07020130164029	1	1	NaN	218	4	29	2	121	221	321	NaN	521	0.010413822485134	1	1	NaN	1736352.4218119	NaN	1736353.4052259	1736353.92180808
41	19	1	0	90	36.1581920903955	36.241610738255	25	0.833392800064757	2	2	3	NaN	1	4	0.07020130164029	1	1	NaN	219	4	30	2	121	221	321	NaN	521	0.0104365176521242	1	1	NaN	1736354.738741	NaN	1736355.7221165	1736356.23866358
41	19	1	0	90	36.1581920903955	36.241610738255	23	0.766721376059577	2	3	3	NaN	1	5	0.07020130164029	1	1	NaN	220	4	31	2	121	221	321	NaN	521	0.0104221699293703	1	1	NaN	1736357.072308	NaN	1736358.0556829	1736358.57224133
41	19	1	0	90	36.1581920903955	36.241610738255	18	0.600042816046625	2	12	3	NaN	2	4	0.07020130164029	1	1	NaN	221	4	32	2	121	221	321	NaN	521	0.127694269875064	1	0	NaN	1736359.3891854	NaN	1736360.3725649	1736360.88913683
41	19	1	0	90	36.1581920903955	36.241610738255	8	0.266685696020722	2	6	3	NaN	1	3	0.07020130164029	1	1	NaN	222	4	33	2	121	221	321	NaN	521	0.0104323700070381	2	0	NaN	1736361.839419	NaN	1736362.8228434	1736363.33936443
41	19	1	0	90	36.1581920903955	36.241610738255	22	0.733385664056987	2	8	1	NaN	2	3	0.07020130164029	1	1	NaN	223	4	34	2	121	221	321	NaN	521	0.0103984226007015	1	0	NaN	1736364.1730085	NaN	1736365.1563779	1736365.67293298
41	19	1	0	90	36.1581920903955	36.241610738255	20	0.666714240051806	2	7	1	NaN	2	5	0.07020130164029	1	1	NaN	224	4	35	2	121	221	321	NaN	521	0.0103960225824267	2	1	NaN	1736366.4897469	NaN	1736367.473272	1736367.98982958
41	19	1	0	90	36.1581920903955	36.241610738255	12	0.400028544031084	2	12	5	NaN	2	3	0.07020130164029	1	1	NaN	225	4	36	2	121	221	321	NaN	521	0.0104112699627876	2	1	NaN	1736368.8233009	NaN	1736369.8068274	1736370.32338073
41	19	1	0	90	36.1581920903955	36.241610738255	13	0.433364256033674	2	9	6	NaN	2	5	0.07020130164029	1	1	NaN	226	4	37	2	121	221	321	NaN	521	0.0103956225793809	1	0	NaN	1736371.1570059	NaN	1736372.1404043	1736372.65695238
41	19	1	0	90	36.1581920903955	36.241610738255	25	0.833392800064757	2	9	6	NaN	2	4	0.07020130164029	1	1	NaN	227	4	38	2	121	221	321	NaN	521	0.01958342269063	2	1	NaN	1736373.8572721	NaN	1736374.8406996	1736375.35720888
41	19	1	0	90	36.1581920903955	36.241610738255	23	0.766721376059577	2	1	5	NaN	1	4	0.07020130164029	1	1	NaN	228	4	39	2	121	221	321	NaN	521	0.0300669700372964	1	1	NaN	1736376.1907026	NaN	1736377.1742255	1736377.69077213
41	19	1	0	90	36.1581920903955	36.241610738255	6	0.200014272015542	2	8	6	NaN	2	3	0.07020130164029	1	1	NaN	229	4	40	2	121	221	321	NaN	521	0.0104123698547482	2	1	NaN	1736378.5410575	NaN	1736379.5244487	1736380.04100603
41	19	1	0	90	36.1581920903955	36.241610738255	13	0.433364256033674	2	8	3	NaN	2	4	0.07020130164029	1	1	NaN	230	4	41	2	121	221	321	NaN	521	0.0104559699539095	2	1	NaN	1736380.8746364	NaN	1736381.8580258	1736382.37456363
41	19	1	0	90	36.1581920903955	36.241610738255	20	0.666714240051806	2	2	2	NaN	1	3	0.07020130164029	1	1	NaN	231	4	42	2	121	221	321	NaN	521	0.252837922656909	2	0	NaN	1736383.2081861	NaN	1736384.1916202	1736384.70812958
41	19	1	0	90	36.1581920903955	36.241610738255	12	0.400028544031084	2	8	3	NaN	2	4	0.07020130164029	1	1	NaN	232	4	43	2	121	221	321	NaN	521	0.010393422562629	2	1	NaN	1736385.7750321	NaN	1736386.7585018	1736387.27504828
41	19	1	0	90	36.1581920903955	36.241610738255	17	0.566707104044035	2	9	3	NaN	2	3	0.07020130164029	1	1	NaN	233	4	44	2	121	221	321	NaN	521	0.0103982225991786	1	0	NaN	1736388.0919944	NaN	1736389.0753894	1736389.59194348
41	19	1	0	90	36.1581920903955	36.241610738255	24	0.800057088062167	2	3	1	NaN	1	5	0.07020130164029	1	1	NaN	234	4	45	2	121	221	321	NaN	521	0.0102777425199747	1	1	NaN	1736390.4089712	NaN	1736391.3923005	1736391.90883886
41	19	1	0	90	36.1581920903955	36.241610738255	6	0.200014272015542	2	3	5	NaN	1	3	0.07020130164029	1	1	NaN	235	4	46	2	121	221	321	NaN	521	0.0102736426051706	1	1	NaN	1736392.7257925	NaN	1736393.7091571	1736394.22574246
41	19	1	0	90	36.1581920903955	36.241610738255	23	0.766721376059577	2	5	1	NaN	1	4	0.07020130164029	1	1	NaN	236	4	47	2	121	221	321	NaN	521	0.0104251699522138	1	1	NaN	1736395.0593546	NaN	1736396.0427519	1736396.55929243
41	19	1	0	90	36.1581920903955	36.241610738255	12	0.400028544031084	2	10	4	NaN	2	5	0.07020130164029	1	1	NaN	237	4	48	2	121	221	321	NaN	521	0.203791327774525	2	1	NaN	1736397.3929053	NaN	1736398.3762994	1736398.89286017
41	19	1	0	90	36.1581920903955	36.241610738255	21	0.700049952054396	2	3	5	NaN	1	4	0.07020130164029	1	1	NaN	238	4	49	2	121	221	321	NaN	521	0.0550893226172775	2	0	NaN	1736399.9097584	NaN	1736400.8932275	1736401.40977618
41	19	1	0	90	36.1581920903955	36.241610738255	7	0.233349984018132	2	2	2	NaN	1	5	0.07020130164029	1	1	NaN	239	4	50	2	121	221	321	NaN	521	0.010405522538349	1	1	NaN	1736402.2767266	NaN	1736403.2601223	1736403.77667638
41	19	1	0	90	36.1581920903955	36.241610738255	0	0	1	5	4	NaN	1	5	0.07020130164029	1	1	NaN	240	4	51	2	111	211	311	NaN	511	0.0104087698273361	1	1	NaN	1736404.6102982	NaN	1736405.5936901	1736406.11023623
41	19	1	0	90	36.1581920903955	36.241610738255	16	0.533371392041445	2	8	5	NaN	2	4	0.07020130164029	1	1	NaN	241	4	52	2	121	221	321	NaN	521	0.0103653275873512	2	1	NaN	1736406.9438409	NaN	1736407.9272842	1736408.44379787
41	19	1	0	90	36.1581920903955	36.241610738255	19	0.633378528049216	2	8	5	NaN	2	4	0.07020130164029	1	1	NaN	242	4	53	2	121	221	321	NaN	521	0.41646897001192	2	1	NaN	1736409.6608452	NaN	1736410.6442047	1736411.16073113
41	19	1	0	90	36.1581920903955	36.241610738255	9	0.300021408023313	2	1	3	NaN	1	3	0.07020130164029	1	1	NaN	243	4	54	2	121	221	321	NaN	521	0.010411822469905	1	1	NaN	1736412.3943876	NaN	1736413.3777711	1736413.89433178
41	19	1	0	90	36.1581920903955	36.241610738255	11	0.366692832028493	2	4	5	NaN	1	5	0.07020130164029	1	1	NaN	244	4	55	2	121	221	321	NaN	521	0.0104209175333381	2	0	NaN	1736414.711283	NaN	1736415.6946744	1736416.21122108
41	19	1	0	90	36.1581920903955	36.241610738255	19	0.633378528049216	2	12	4	NaN	2	5	0.07020130164029	1	1	NaN	245	4	56	2	121	221	321	NaN	521	0.0103777276817709	1	0	NaN	1736417.044852	NaN	1736418.0282263	1736418.54478467
41	19	1	0	90	36.1581920903955	36.241610738255	20	0.666714240051806	2	9	4	NaN	2	5	0.07020130164029	1	1	NaN	246	4	57	2	121	221	321	NaN	521	0.0104077700525522	2	1	NaN	1736419.3784108	NaN	1736420.3618061	1736420.87835053
41	19	1	0	90	36.1581920903955	36.241610738255	10	0.333357120025903	2	7	2	NaN	2	4	0.07020130164029	1	1	NaN	247	4	58	2	121	221	321	NaN	521	0.0104042224120349	2	1	NaN	1736421.7119661	NaN	1736422.6952733	1736423.21191178
41	19	1	0	90	36.1581920903955	36.241610738255	0	0	1	2	5	NaN	1	3	0.07020130164029	1	1	NaN	248	4	59	2	111	211	311	NaN	511	0.0104085700586438	1	1	NaN	1736424.0455377	NaN	1736425.0289295	1736425.54547433
41	19	1	0	90	36.1581920903955	36.241610738255	18	0.600042816046625	2	11	1	NaN	2	5	0.07020130164029	1	1	NaN	249	4	60	2	121	221	321	NaN	521	0.0103984226007015	2	1	NaN	1736426.3789837	NaN	1736427.362619	1736427.87903268
41	19	1	0	90	36.1581920903955	36.241610738255	9	0.300021408023313	2	4	1	NaN	1	4	0.07020130164029	1	1	NaN	250	4	61	2	121	221	321	NaN	521	0.0202541698236018	1	1	NaN	1736428.7126646	NaN	1736429.6960573	1736430.21259953
41	19	1	0	90	36.1581920903955	36.241610738255	20	0.666714240051806	2	1	6	NaN	1	4	0.07020130164029	1	1	NaN	251	4	62	2	121	221	321	NaN	521	0.010400922736153	1	1	NaN	1736431.0462207	NaN	1736432.0296162	1736432.54616498
41	19	1	0	90	36.1581920903955	36.241610738255	21	0.700049952054396	2	5	2	NaN	1	4	0.07020130164029	1	1	NaN	252	4	63	2	121	221	321	NaN	521	0.0104370175395161	1	1	NaN	1736433.3797622	NaN	1736434.3631685	1736434.87971988
41	19	1	0	90	36.1581920903955	36.241610738255	9	0.300021408023313	2	12	5	NaN	2	4	0.07020130164029	1	1	NaN	253	5	1	2	121	221	321	NaN	521	0.010412469971925	1	0	NaN	1736444.2308452	NaN	1736445.2142436	1736445.73078773
41	19	1	0	90	36.1581920903955	36.241610738255	9	0.300021408023313	2	9	3	NaN	2	3	0.07020130164029	1	1	NaN	254	5	2	2	121	221	321	NaN	521	0.0104034226387739	2	1	NaN	1736446.5643997	NaN	1736447.5477954	1736448.06435248
41	19	1	0	90	36.1581920903955	36.241610738255	24	0.800057088062167	2	6	1	NaN	1	4	0.07020130164029	1	1	NaN	255	5	3	2	121	221	321	NaN	521	0.0104202176444232	1	1	NaN	1736449.2480098	NaN	1736450.2314072	1736450.74794448
41	19	1	0	90	36.1581920903955	36.241610738255	14	0.466699968036264	2	4	5	NaN	1	3	0.07020130164029	1	1	NaN	256	5	4	2	121	221	321	NaN	521	0.0103965224698186	1	1	NaN	1736451.5815541	NaN	1736452.5649526	1736453.08150868
41	19	1	0	90	36.1581920903955	36.241610738255	15	0.500035680038854	2	2	5	NaN	1	4	0.07020130164029	1	1	NaN	257	5	5	2	121	221	321	NaN	521	0.154383969958872	1	1	NaN	1736453.8984437	NaN	1736454.8818529	1736455.39840893
41	19	1	0	90	36.1581920903955	36.241610738255	15	0.500035680038854	2	5	6	NaN	1	3	0.07020130164029	1	1	NaN	258	5	6	2	121	221	321	NaN	521	0.119654242414981	1	1	NaN	1736456.3653704	NaN	1736457.3487692	1736457.86531896
41	19	1	0	90	36.1581920903955	36.241610738255	21	0.700049952054396	2	10	4	NaN	2	5	0.07020130164029	1	1	NaN	259	5	7	2	121	221	321	NaN	521	0.270121169975027	2	1	NaN	1736458.7989164	NaN	1736459.782339	1736460.29888243
41	19	1	0	90	36.1581920903955	36.241610738255	0	0	1	4	2	NaN	1	5	0.07020130164029	1	1	NaN	260	5	8	2	111	211	311	NaN	511	0.534747722558677	1	1	NaN	1736461.3825304	NaN	1736462.3659165	1736462.88247128
41	19	1	0	90	36.1581920903955	36.241610738255	9	0.300021408023313	2	3	5	NaN	1	3	0.07020130164029	1	1	NaN	261	5	9	2	121	221	321	NaN	521	0.404099942650646	1	1	NaN	1736464.2327736	NaN	1736465.2162033	1736465.73276366
41	19	1	0	90	36.1581920903955	36.241610738255	23	0.766721376059577	2	3	2	NaN	1	3	0.07020130164029	1	1	NaN	262	5	10	2	121	221	321	NaN	521	0.358509222744033	1	1	NaN	1736466.966541	NaN	1736467.9498447	1736468.46635718
41	19	1	0	90	36.1581920903955	36.241610738255	23	0.766721376059577	2	6	3	NaN	1	3	0.07020130164029	1	1	NaN	263	5	11	2	121	221	321	NaN	521	0.278703817399219	1	1	NaN	1736469.766555	NaN	1736470.7500758	1736471.26663058
41	19	1	0	90	36.1581920903955	36.241610738255	16	0.533371392041445	2	5	1	NaN	1	5	0.07020130164029	1	1	NaN	264	5	12	2	121	221	321	NaN	521	0.238772832555696	1	1	NaN	1736472.3502605	NaN	1736473.3336625	1736473.85021337
41	19	1	0	90	36.1581920903955	36.241610738255	20	0.666714240051806	2	10	2	NaN	2	4	0.07020130164029	1	1	NaN	265	5	13	2	121	221	321	NaN	521	0.232534870039672	2	1	NaN	1736474.9005227	NaN	1736475.8839683	1736476.40046783
41	19	1	0	90	36.1581920903955	36.241610738255	15	0.500035680038854	2	12	5	NaN	2	5	0.07020130164029	1	1	NaN	266	5	14	2	121	221	321	NaN	521	0.570314169861376	2	1	NaN	1736477.450784	NaN	1736478.4341505	1736478.95072203
41	19	1	0	90	36.1581920903955	36.241610738255	10	0.333357120025903	2	6	5	NaN	1	5	0.07020130164029	1	1	NaN	267	5	15	2	121	221	321	NaN	521	0.43546521756798	1	1	NaN	1736480.8177204	NaN	1736481.8011648	1736482.31770648
41	19	1	0	90	36.1581920903955	36.241610738255	14	0.466699968036264	2	7	4	NaN	2	3	0.07020130164029	1	1	NaN	268	5	16	2	121	221	321	NaN	521	0.205297017470002	2	1	NaN	1736483.5680611	NaN	1736484.5514981	1736485.06798288
41	19	1	0	90	36.1581920903955	36.241610738255	25	0.833392800064757	2	7	5	NaN	2	5	0.07020130164029	1	1	NaN	269	5	17	2	121	221	321	NaN	521	0.0104181698989123	2	1	NaN	1736486.0849857	NaN	1736487.068348	1736487.58489573
41	19	1	0	90	36.1581920903955	36.241610738255	25	0.833392800064757	2	11	3	NaN	2	4	0.07020130164029	1	1	NaN	270	5	18	2	121	221	321	NaN	521	0.283035522559658	2	1	NaN	1736488.4017385	NaN	1736489.3852177	1736489.90179648
41	19	1	0	90	36.1581920903955	36.241610738255	23	0.766721376059577	2	12	1	NaN	2	3	0.07020130164029	1	1	NaN	271	5	19	2	121	221	321	NaN	521	0.330386084970087	2	1	NaN	1736491.4188436	NaN	1736492.4022113	1736492.91875151
41	19	1	0	90	36.1581920903955	36.241610738255	12	0.400028544031084	2	5	6	NaN	1	4	0.07020130164029	1	1	NaN	272	5	20	2	121	221	321	NaN	521	0.0104251175653189	1	1	NaN	1736494.0690601	NaN	1736495.0525127	1736495.56900668
41	19	1	0	90	36.1581920903955	36.241610738255	25	0.833392800064757	2	3	3	NaN	1	5	0.07020130164029	1	1	NaN	273	5	21	2	121	221	321	NaN	521	0.0910335225053132	1	1	NaN	1736496.3858896	NaN	1736497.3693586	1736497.88591008
41	19	1	0	90	36.1581920903955	36.241610738255	6	0.200014272015542	2	8	1	NaN	2	3	0.07020130164029	1	1	NaN	274	5	22	2	121	221	321	NaN	521	0.0103984226007015	2	1	NaN	1736498.7862905	NaN	1736499.7695827	1736500.28615288
41	19	1	0	90	36.1581920903955	36.241610738255	24	0.800057088062167	2	3	6	NaN	1	3	0.07020130164029	1	1	NaN	275	5	23	2	121	221	321	NaN	521	0.16738282260485	1	1	NaN	1736501.6697744	NaN	1736502.6532162	1736503.16976018
41	19	1	0	90	36.1581920903955	36.241610738255	0	0	1	4	4	NaN	1	3	0.07020130164029	1	1	NaN	276	5	24	2	111	211	311	NaN	511	0.0104147701058537	1	1	NaN	1736504.1534085	NaN	1736505.1367738	1736505.65333043
41	19	1	0	90	36.1581920903955	36.241610738255	7	0.233349984018132	2	6	3	NaN	1	4	0.07020130164029	1	1	NaN	277	5	25	2	121	221	321	NaN	521	0.0103870227467269	1	1	NaN	1736506.4869513	NaN	1736507.4703607	1736507.98689918
41	19	1	0	90	36.1581920903955	36.241610738255	17	0.566707104044035	2	6	5	NaN	1	5	0.07020130164029	1	1	NaN	278	5	26	2	121	221	321	NaN	521	0.0104038226418197	1	1	NaN	1736508.8205232	NaN	1736509.8038952	1736510.32046418
41	19	1	0	90	36.1581920903955	36.241610738255	22	0.733385664056987	2	3	2	NaN	1	3	0.07020130164029	1	1	NaN	279	5	27	2	121	221	321	NaN	521	0.0104075700510293	1	1	NaN	1736511.1539374	NaN	1736512.1374813	1736512.65402513
41	19	1	0	90	36.1581920903955	36.241610738255	15	0.500035680038854	2	5	5	NaN	1	4	0.07020130164029	1	1	NaN	280	5	28	2	121	221	321	NaN	521	0.0104069700464606	1	1	NaN	1736513.4875439	NaN	1736514.4710396	1736514.98758913
41	19	1	0	90	36.1581920903955	36.241610738255	22	0.733385664056987	2	11	1	NaN	2	4	0.07020130164029	1	1	NaN	281	5	29	2	121	221	321	NaN	521	0.010404669912532	1	0	NaN	1736515.8044973	NaN	1736516.7879336	1736517.30449883
41	19	1	0	90	36.1581920903955	36.241610738255	11	0.366692832028493	2	7	3	NaN	2	4	0.07020130164029	1	1	NaN	282	5	30	2	121	221	321	NaN	521	0.409371722489595	2	1	NaN	1736518.1880756	NaN	1736519.1714853	1736519.68805378
41	19	1	0	90	36.1581920903955	36.241610738255	20	0.666714240051806	2	8	4	NaN	2	5	0.07020130164029	1	1	NaN	283	5	31	2	121	221	321	NaN	521	0.163999969838187	2	1	NaN	1736520.9050338	NaN	1736521.8884487	1736522.40498393
41	19	1	0	90	36.1581920903955	36.241610738255	10	0.333357120025903	2	12	2	NaN	2	3	0.07020130164029	1	1	NaN	284	5	32	2	121	221	321	NaN	521	0.572087022475898	2	1	NaN	1736524.1053309	NaN	1736525.0887441	1736525.60529928
41	19	1	0	90	36.1581920903955	36.241610738255	13	0.433364256033674	2	1	3	NaN	1	3	0.07020130164029	1	1	NaN	285	5	33	2	121	221	321	NaN	521	0.0104122702032328	1	1	NaN	1736526.9889534	NaN	1736527.9723635	1736528.48891443
41	19	1	0	90	36.1581920903955	36.241610738255	12	0.400028544031084	2	10	6	NaN	2	4	0.07020130164029	1	1	NaN	286	5	34	2	121	221	321	NaN	521	0.290671169990674	1	0	NaN	1736529.3225464	NaN	1736530.3059144	1736530.82249503
41	19	1	0	90	36.1581920903955	36.241610738255	6	0.200014272015542	2	4	6	NaN	1	5	0.07020130164029	1	1	NaN	287	5	35	2	121	221	321	NaN	521	0.0104106699582189	2	0	NaN	1736531.9394552	NaN	1736532.9228563	1736533.43940273
41	19	1	0	90	36.1581920903955	36.241610738255	14	0.466699968036264	2	2	4	NaN	1	3	0.07020130164029	1	1	NaN	288	5	36	2	121	221	321	NaN	521	0.243971569929272	2	0	NaN	1736534.2730246	NaN	1736535.2564058	1736535.77295973
41	19	1	0	90	36.1581920903955	36.241610738255	20	0.666714240051806	2	12	3	NaN	2	4	0.07020130164029	1	1	NaN	289	5	37	2	121	221	321	NaN	521	0.357275270158425	1	0	NaN	1736536.8399173	NaN	1736537.8233374	1736538.33987073
41	19	1	0	90	36.1581920903955	36.241610738255	13	0.433364256033674	2	6	4	NaN	1	5	0.07020130164029	1	1	NaN	290	5	38	2	121	221	321	NaN	521	0.0103019899688661	1	1	NaN	1736539.5235359	NaN	1736540.5069174	1736541.02347411
41	19	1	0	90	36.1581920903955	36.241610738255	25	0.833392800064757	2	1	2	NaN	1	5	0.07020130164029	1	1	NaN	291	5	39	2	121	221	321	NaN	521	0.010410170070827	1	1	NaN	1736541.8404232	NaN	1736542.8238261	1736543.34036913
41	19	1	0	90	36.1581920903955	36.241610738255	16	0.533371392041445	2	4	1	NaN	1	4	0.07020130164029	1	1	NaN	292	5	40	2	121	221	321	NaN	521	0.223437869921327	1	1	NaN	1736544.1739803	NaN	1736545.1573722	1736545.67392683
41	19	1	0	90	36.1581920903955	36.241610738255	11	0.366692832028493	2	2	6	NaN	1	4	0.07020130164029	1	1	NaN	293	5	41	2	121	221	321	NaN	521	0.0104053700342774	2	0	NaN	1736546.7075676	NaN	1736547.6909736	1736548.20751613
41	19	1	0	90	36.1581920903955	36.241610738255	12	0.400028544031084	2	1	2	NaN	1	4	0.07020130164029	1	1	NaN	294	5	42	2	121	221	321	NaN	521	0.0103888749144971	1	1	NaN	1736549.0411332	NaN	1736550.0245109	1736550.54107442
41	19	1	0	90	36.1581920903955	36.241610738255	8	0.266685696020722	2	2	6	NaN	1	4	0.07020130164029	1	1	NaN	295	5	43	2	121	221	321	NaN	521	0.0104071700479835	1	1	NaN	1736551.3745678	NaN	1736552.3580996	1736552.87463343
41	19	1	0	90	36.1581920903955	36.241610738255	13	0.433364256033674	2	5	6	NaN	1	4	0.07020130164029	1	1	NaN	296	5	44	2	121	221	321	NaN	521	0.210054370108992	2	0	NaN	1736553.875003	NaN	1736554.8583795	1736555.37488253
41	19	1	0	90	36.1581920903955	36.241610738255	7	0.233349984018132	2	11	3	NaN	2	5	0.07020130164029	1	1	NaN	297	5	45	2	121	221	321	NaN	521	0.388786370167509	2	1	NaN	1736556.4085164	NaN	1736557.391918	1736557.90846943
41	19	1	0	90	36.1581920903955	36.241610738255	22	0.733385664056987	2	2	6	NaN	1	4	0.07020130164029	1	1	NaN	298	5	46	2	121	221	321	NaN	521	0.0103980225976557	1	1	NaN	1736559.1254248	NaN	1736560.1088377	1736560.62540388
41	19	1	0	90	36.1581920903955	36.241610738255	25	0.833392800064757	2	2	3	NaN	1	5	0.07020130164029	1	1	NaN	299	5	47	2	121	221	321	NaN	521	0.490374870132655	2	0	NaN	1736561.4590154	NaN	1736562.4423989	1736562.95896513
41	19	1	0	90	36.1581920903955	36.241610738255	17	0.566707104044035	2	10	2	NaN	2	5	0.07020130164029	1	1	NaN	300	5	48	2	121	221	321	NaN	521	0.298112269956619	2	1	NaN	1736564.2591943	NaN	1736565.2426802	1736565.75923793
41	19	1	0	90	36.1581920903955	36.241610738255	9	0.300021408023313	2	2	2	NaN	1	5	0.07020130164029	1	1	NaN	301	5	49	2	121	221	321	NaN	521	0.104963122634217	1	1	NaN	1736566.8762239	NaN	1736567.8596186	1736568.37616648
41	19	1	0	90	36.1581920903955	36.241610738255	24	0.800057088062167	2	9	1	NaN	2	3	0.07020130164029	1	1	NaN	302	5	50	2	121	221	321	NaN	521	0.0104090226814151	2	1	NaN	1736569.2931367	NaN	1736570.2764999	1736570.79306848
41	19	1	0	90	36.1581920903955	36.241610738255	22	0.733385664056987	2	10	6	NaN	2	4	0.07020130164029	1	1	NaN	303	5	51	2	121	221	321	NaN	521	0.380375274922699	2	1	NaN	1736571.7766559	NaN	1736572.7600929	1736573.27664102
41	19	1	0	90	36.1581920903955	36.241610738255	24	0.800057088062167	2	10	1	NaN	2	3	0.07020130164029	1	1	NaN	304	5	52	2	121	221	321	NaN	521	0.0103948225732893	2	1	NaN	1736574.4769616	NaN	1736575.4603464	1736575.97691088
41	19	1	0	90	36.1581920903955	36.241610738255	24	0.800057088062167	2	4	1	NaN	1	4	0.07020130164029	1	1	NaN	305	5	53	2	121	221	321	NaN	521	0.0172117177862674	1	1	NaN	1736577.2438691	NaN	1736578.2272907	1736578.74384168
41	19	1	0	90	36.1581920903955	36.241610738255	8	0.266685696020722	2	4	2	NaN	1	5	0.07020130164029	1	1	NaN	306	5	54	2	121	221	321	NaN	521	0.0104090699460357	1	1	NaN	1736579.5774829	NaN	1736580.5609335	1736581.07739853
41	19	1	0	90	36.1581920903955	36.241610738255	21	0.700049952054396	2	8	1	NaN	2	3	0.07020130164029	1	1	NaN	307	5	55	2	121	221	321	NaN	521	0.35797007009387	2	1	NaN	1736581.9110048	NaN	1736582.894421	1736583.41096173
41	19	1	0	90	36.1581920903955	36.241610738255	0	0	1	7	6	NaN	2	3	0.07020130164029	1	1	NaN	308	5	56	2	111	211	311	NaN	511	0.0104103700723499	1	0	NaN	1736584.5946114	NaN	1736585.5780039	1736586.09456883
41	19	1	0	90	36.1581920903955	36.241610738255	17	0.566707104044035	2	3	1	NaN	1	3	0.07020130164029	1	1	NaN	309	5	57	2	121	221	321	NaN	521	0.237724869977683	1	1	NaN	1736586.9114484	NaN	1736587.8949098	1736588.41146533
41	19	1	0	90	36.1581920903955	36.241610738255	14	0.466699968036264	2	4	1	NaN	1	4	0.07020130164029	1	1	NaN	310	5	58	2	121	221	321	NaN	521	0.0103849750012159	1	1	NaN	1736589.4617635	NaN	1736590.4451499	1736590.96171613
41	19	1	0	90	36.1581920903955	36.241610738255	11	0.366692832028493	2	10	6	NaN	2	3	0.07020130164029	1	1	NaN	311	5	59	2	121	221	321	NaN	521	0.0104288174770772	1	0	NaN	1736591.7951996	NaN	1736592.7787931	1736593.29526728
41	19	1	0	90	36.1581920903955	36.241610738255	8	0.266685696020722	2	11	5	NaN	2	3	0.07020130164029	1	1	NaN	312	5	60	2	121	221	321	NaN	521	0.010424270061776	2	1	NaN	1736594.128887	NaN	1736595.1122726	1736595.62883633
41	19	1	0	90	36.1581920903955	36.241610738255	22	0.733385664056987	2	7	5	NaN	2	3	0.07020130164029	1	1	NaN	313	5	61	2	121	221	321	NaN	521	0.303064770065248	2	1	NaN	1736596.4624444	NaN	1736597.4458615	1736597.96239633
41	19	1	0	90	36.1581920903955	36.241610738255	13	0.433364256033674	2	2	4	NaN	1	3	0.07020130164029	1	1	NaN	314	5	62	2	121	221	321	NaN	521	0.0103926225565374	1	1	NaN	1736599.0960489	NaN	1736600.0794369	1736600.59599078
41	19	1	0	90	36.1581920903955	36.241610738255	23	0.766721376059577	2	4	6	NaN	1	5	0.07020130164029	1	1	NaN	315	5	63	2	121	221	321	NaN	521	0.223588470136747	1	1	NaN	1736601.4296116	NaN	1736602.4130055	1736602.92955453
41	19	1	0	90	36.1581920903955	36.241610738255	25	0.833392800064757	2	11	5	NaN	2	3	0.07020130164029	1	1	NaN	316	6	1	2	121	221	321	NaN	521	0.247468475019559	1	0	NaN	1736611.2137665	NaN	1736612.1973029	1736612.71384432
41	19	1	0	90	36.1581920903955	36.241610738255	11	0.366692832028493	2	11	6	NaN	2	3	0.07020130164029	1	1	NaN	317	6	2	2	121	221	321	NaN	521	0.0104252174496651	2	1	NaN	1736613.7808157	NaN	1736614.7642206	1736615.28075798
41	19	1	0	90	36.1581920903955	36.241610738255	20	0.666714240051806	2	5	6	NaN	1	5	0.07020130164029	1	1	NaN	318	6	3	2	121	221	321	NaN	521	0.0350604699924588	1	1	NaN	1736616.1142534	NaN	1736617.0977755	1736617.61432263
41	19	1	0	90	36.1581920903955	36.241610738255	12	0.400028544031084	2	8	3	NaN	2	4	0.07020130164029	1	1	NaN	319	6	4	2	121	221	321	NaN	521	0.372523469850421	2	1	NaN	1736618.4646291	NaN	1736619.4479894	1736619.96457323
41	19	1	0	90	36.1581920903955	36.241610738255	12	0.400028544031084	2	11	1	NaN	2	4	0.07020130164029	1	1	NaN	320	6	5	2	121	221	321	NaN	521	0.424951669992879	1	0	NaN	1736621.1481647	NaN	1736622.1316087	1736622.64815343
41	19	1	0	90	36.1581920903955	36.241610738255	21	0.700049952054396	2	11	6	NaN	2	4	0.07020130164029	1	1	NaN	321	6	6	2	121	221	321	NaN	521	0.355509722605348	2	1	NaN	1736623.8817988	NaN	1736624.8652015	1736625.38175668
41	19	1	0	90	36.1581920903955	36.241610738255	15	0.500035680038854	2	8	2	NaN	2	4	0.07020130164029	1	1	NaN	322	6	7	2	121	221	321	NaN	521	0.464404617669061	2	1	NaN	1736626.5487477	NaN	1736627.5321271	1736628.04868938
41	19	1	0	90	36.1581920903955	36.241610738255	13	0.433364256033674	2	3	4	NaN	1	5	0.07020130164029	1	1	NaN	323	6	8	2	121	221	321	NaN	521	0.0104057700373232	1	1	NaN	1736629.3323368	NaN	1736630.3157341	1736630.83228763
41	19	1	0	90	36.1581920903955	36.241610738255	22	0.733385664056987	2	4	3	NaN	1	5	0.07020130164029	1	1	NaN	324	6	9	2	121	221	321	NaN	521	0.0103964225854725	1	1	NaN	1736631.6658629	NaN	1736632.6493086	1736633.16585638
41	19	1	0	90	36.1581920903955	36.241610738255	12	0.400028544031084	2	12	3	NaN	2	4	0.07020130164029	1	1	NaN	325	6	10	2	121	221	321	NaN	521	0.0103018898516893	2	1	NaN	1736633.9994758	NaN	1736634.982876	1736635.49941791
41	19	1	0	90	36.1581920903955	36.241610738255	20	0.666714240051806	2	5	4	NaN	1	4	0.07020130164029	1	1	NaN	326	6	11	2	121	221	321	NaN	521	0.0104043697938323	1	1	NaN	1736636.3330154	NaN	1736637.3164361	1736637.83297913
41	19	1	0	90	36.1581920903955	36.241610738255	24	0.800057088062167	2	12	4	NaN	2	3	0.07020130164029	1	1	NaN	327	6	12	2	121	221	321	NaN	521	0.0105674176011235	2	1	NaN	1736638.6665979	NaN	1736639.6499829	1736640.16656178
41	19	1	0	90	36.1581920903955	36.241610738255	22	0.733385664056987	2	8	6	NaN	2	4	0.07020130164029	1	1	NaN	328	6	13	2	121	221	321	NaN	521	0.077300569973886	1	0	NaN	1736641.0000245	NaN	1736641.9835548	1736642.50010673
41	19	1	0	90	36.1581920903955	36.241610738255	16	0.533371392041445	2	9	1	NaN	2	5	0.07020130164029	1	1	NaN	329	6	14	2	121	221	321	NaN	521	0.173250217456371	2	1	NaN	1736643.4004376	NaN	1736644.383787	1736644.90034418
41	19	1	0	90	36.1581920903955	36.241610738255	13	0.433364256033674	2	7	1	NaN	2	5	0.07020130164029	1	1	NaN	330	6	15	2	121	221	321	NaN	521	0.0103927226737142	1	0	NaN	1736645.8839851	NaN	1736646.8673766	1736647.38391438
41	19	1	0	90	36.1581920903955	36.241610738255	14	0.466699968036264	2	1	3	NaN	1	5	0.07020130164029	1	1	NaN	331	6	16	2	121	221	321	NaN	521	0.0196684701368213	1	1	NaN	1736648.2175414	NaN	1736649.2009633	1736649.71748183
41	19	1	0	90	36.1581920903955	36.241610738255	25	0.833392800064757	2	10	4	NaN	2	3	0.07020130164029	1	1	NaN	332	6	17	2	121	221	321	NaN	521	0.478299922542647	2	1	NaN	1736650.5511065	NaN	1736651.5344843	1736652.05104178
41	19	1	0	90	36.1581920903955	36.241610738255	23	0.766721376059577	2	5	5	NaN	1	3	0.07020130164029	1	1	NaN	333	6	18	2	121	221	321	NaN	521	1.59048637514934	2	0	NaN	1736653.3346972	NaN	1736654.3180821	1736654.83463982
41	19	1	0	90	36.1581920903955	36.241610738255	9	0.300021408023313	2	10	4	NaN	2	3	0.07020130164029	1	1	NaN	334	6	19	2	121	221	321	NaN	521	0.395329269813374	2	1	NaN	1736657.4017828	NaN	1736658.3851836	1736658.90171433
41	19	1	0	90	36.1581920903955	36.241610738255	8	0.266685696020722	2	3	5	NaN	1	3	0.07020130164029	1	1	NaN	335	6	20	2	121	221	321	NaN	521	0.0624558699782938	1	1	NaN	1736660.1186916	NaN	1736661.1022136	1736661.61864613
41	19	1	0	90	36.1581920903955	36.241610738255	6	0.200014272015542	2	3	3	NaN	1	4	0.07020130164029	1	1	NaN	336	6	21	2	121	221	321	NaN	521	0.0104290177114308	1	1	NaN	1736662.5023222	NaN	1736663.4856704	1736664.00221438
41	19	1	0	90	36.1581920903955	36.241610738255	9	0.300021408023313	2	5	4	NaN	1	3	0.07020130164029	1	1	NaN	337	6	22	2	121	221	321	NaN	521	0.217806275002658	1	1	NaN	1736664.8358161	NaN	1736665.819232	1736666.33576833
41	19	1	0	90	36.1581920903955	36.241610738255	24	0.800057088062167	2	7	1	NaN	2	5	0.07020130164029	1	1	NaN	338	6	23	2	121	221	321	NaN	521	0.0104383176658303	2	1	NaN	1736667.3694162	NaN	1736668.3527966	1736668.86935498
41	19	1	0	90	36.1581920903955	36.241610738255	12	0.400028544031084	2	9	1	NaN	2	4	0.07020130164029	1	1	NaN	339	6	24	2	121	221	321	NaN	521	0.311294007580727	2	1	NaN	1736669.6863084	NaN	1736670.6697021	1736671.18625009
41	19	1	0	90	36.1581920903955	36.241610738255	19	0.633378528049216	2	4	4	NaN	1	5	0.07020130164029	1	1	NaN	340	6	25	2	121	221	321	NaN	521	0.373897470068187	1	1	NaN	1736672.5032275	NaN	1736673.4866498	1736674.00319523
41	19	1	0	90	36.1581920903955	36.241610738255	15	0.500035680038854	2	10	5	NaN	2	3	0.07020130164029	1	1	NaN	341	6	26	2	121	221	321	NaN	521	0.0104241699445993	2	1	NaN	1736675.1867361	NaN	1736676.1702357	1736676.68679583
41	19	1	0	90	36.1581920903955	36.241610738255	17	0.566707104044035	2	2	3	NaN	1	5	0.07020130164029	1	1	NaN	342	6	27	2	121	221	321	NaN	521	0.372725622728467	2	0	NaN	1736677.5204007	NaN	1736678.5037965	1736679.02036038
41	19	1	0	90	36.1581920903955	36.241610738255	19	0.633378528049216	2	11	6	NaN	2	4	0.07020130164029	1	1	NaN	343	6	28	2	121	221	321	NaN	521	0.0103973224759102	1	0	NaN	1736680.203927	NaN	1736681.1874011	1736681.70394248
41	19	1	0	90	36.1581920903955	36.241610738255	12	0.400028544031084	2	1	1	NaN	1	4	0.07020130164029	1	1	NaN	344	6	29	2	121	221	321	NaN	521	0.0104056699201465	1	1	NaN	1736682.5375699	NaN	1736683.5209711	1736684.03751243
41	19	1	0	90	36.1581920903955	36.241610738255	20	0.666714240051806	2	9	3	NaN	2	5	0.07020130164029	1	1	NaN	345	6	30	2	121	221	321	NaN	521	0.398360469844192	2	1	NaN	1736684.8711422	NaN	1736685.8545275	1736686.37107933
41	19	1	0	90	36.1581920903955	36.241610738255	12	0.400028544031084	2	3	1	NaN	1	3	0.07020130164029	1	1	NaN	346	6	31	2	121	221	321	NaN	521	0.010393422562629	1	1	NaN	1736687.5879434	NaN	1736688.5714661	1736689.08801028
41	19	1	0	90	36.1581920903955	36.241610738255	7	0.233349984018132	2	3	1	NaN	1	5	0.07020130164029	1	1	NaN	347	6	32	2	121	221	321	NaN	521	0.0103936225641519	1	1	NaN	1736689.9216388	NaN	1736690.9050038	1736691.42156688
41	19	1	0	90	36.1581920903955	36.241610738255	19	0.633378528049216	2	10	6	NaN	2	3	0.07020130164029	1	1	NaN	348	6	33	2	121	221	321	NaN	521	0.366283047711477	2	1	NaN	1736692.2551789	NaN	1736693.2385849	1736693.75515385
41	19	1	0	90	36.1581920903955	36.241610738255	15	0.500035680038854	2	11	4	NaN	2	5	0.07020130164029	1	1	NaN	349	6	34	2	121	221	321	NaN	521	0.154840274946764	2	1	NaN	1736694.9387036	NaN	1736695.9221701	1736696.43873683
41	19	1	0	90	36.1581920903955	36.241610738255	23	0.766721376059577	2	7	5	NaN	2	3	0.07020130164029	1	1	NaN	350	6	35	2	121	221	321	NaN	521	0.759616369847208	2	1	NaN	1736697.405677	NaN	1736698.3889816	1736698.90563473
41	19	1	0	90	36.1581920903955	36.241610738255	14	0.466699968036264	2	10	6	NaN	2	4	0.07020130164029	1	1	NaN	351	6	36	2	121	221	321	NaN	521	0.402234074892476	2	1	NaN	1736700.9393421	NaN	1736701.9227526	1736702.43932383
41	19	1	0	90	36.1581920903955	36.241610738255	25	0.833392800064757	2	8	3	NaN	2	4	0.07020130164029	1	1	NaN	352	6	37	2	121	221	321	NaN	521	0.341097817523405	2	1	NaN	1736703.6563228	NaN	1736704.6396276	1736705.15625288
41	19	1	0	90	36.1581920903955	36.241610738255	8	0.266685696020722	2	5	3	NaN	1	5	0.07020130164029	1	1	NaN	353	6	38	2	121	221	321	NaN	521	0.154033827595413	1	1	NaN	1736706.3232621	NaN	1736707.3066451	1736707.82318497
41	19	1	0	90	36.1581920903955	36.241610738255	18	0.600042816046625	2	5	3	NaN	1	3	0.07020130164029	1	1	NaN	354	6	39	2	121	221	321	NaN	521	0.303502969909459	1	1	NaN	1736708.7900135	NaN	1736709.7735304	1736710.29008783
41	19	1	0	90	36.1581920903955	36.241610738255	11	0.366692832028493	2	12	6	NaN	2	4	0.07020130164029	1	1	NaN	355	6	40	2	121	221	321	NaN	521	0.32660981756635	2	1	NaN	1736711.4070631	NaN	1736712.3904606	1736712.90700928
41	19	1	0	90	36.1581920903955	36.241610738255	21	0.700049952054396	2	10	5	NaN	2	5	0.07020130164029	1	1	NaN	356	6	41	2	121	221	321	NaN	521	0.0104359176475555	2	1	NaN	1736714.057315	NaN	1736715.0407298	1736715.55726828
41	19	1	0	90	36.1581920903955	36.241610738255	7	0.233349984018132	2	8	5	NaN	2	3	0.07020130164029	1	1	NaN	357	6	42	2	121	221	321	NaN	521	0.318524070084095	2	1	NaN	1736716.3909046	NaN	1736717.3742713	1736717.89083643
41	19	1	0	90	36.1581920903955	36.241610738255	22	0.733385664056987	2	9	1	NaN	2	4	0.07020130164029	1	1	NaN	358	6	43	2	121	221	321	NaN	521	0.261321722529829	2	1	NaN	1736719.024458	NaN	1736720.0078904	1736720.52442918
41	19	1	0	90	36.1581920903955	36.241610738255	6	0.200014272015542	2	6	6	NaN	1	5	0.07020130164029	1	1	NaN	359	6	44	2	121	221	321	NaN	521	0.181274817558005	2	0	NaN	1736721.6080614	NaN	1736722.5914532	1736723.10801418
41	19	1	0	90	36.1581920903955	36.241610738255	18	0.600042816046625	2	3	2	NaN	1	3	0.07020130164029	1	1	NaN	360	6	45	2	121	221	321	NaN	521	0.0104165174998343	1	1	NaN	1736724.3413392	NaN	1736725.3250733	1736725.84160848
41	19	1	0	90	36.1581920903955	36.241610738255	20	0.666714240051806	2	4	3	NaN	1	3	0.07020130164029	1	1	NaN	361	6	46	2	121	221	321	NaN	521	0.237205327721313	1	1	NaN	1736727.5919622	NaN	1736728.575382	1736729.09194027
41	19	1	0	90	36.1581920903955	36.241610738255	13	0.433364256033674	2	9	4	NaN	2	4	0.07020130164029	1	1	NaN	362	6	47	2	121	221	321	NaN	521	0.214248870033771	2	1	NaN	1736730.5589317	NaN	1736731.5423438	1736732.05889003
41	19	1	0	90	36.1581920903955	36.241610738255	10	0.333357120025903	2	2	1	NaN	1	4	0.07020130164029	1	1	NaN	363	6	48	2	121	221	321	NaN	521	0.0104063700418919	1	1	NaN	1736733.4592066	NaN	1736734.4426711	1736734.95918153
41	19	1	0	90	36.1581920903955	36.241610738255	21	0.700049952054396	2	8	6	NaN	2	5	0.07020130164029	1	1	NaN	364	6	49	2	121	221	321	NaN	521	0.0104158699978143	1	0	NaN	1736735.7927827	NaN	1736736.7761983	1736737.29273473
41	19	1	0	90	36.1581920903955	36.241610738255	12	0.400028544031084	2	4	1	NaN	1	4	0.07020130164029	1	1	NaN	365	6	50	2	121	221	321	NaN	521	0.0104090699460357	2	0	NaN	1736738.1096195	NaN	1736739.093074	1736739.60963253
41	19	1	0	90	36.1581920903955	36.241610738255	24	0.800057088062167	2	5	3	NaN	1	3	0.07020130164029	1	1	NaN	366	6	51	2	121	221	321	NaN	521	0.290246370015666	1	1	NaN	1736740.4432477	NaN	1736741.4266483	1736741.94318873
41	19	1	0	90	36.1581920903955	36.241610738255	22	0.733385664056987	2	4	4	NaN	1	3	0.07020130164029	1	1	NaN	367	6	52	2	121	221	321	NaN	521	0.449136022478342	1	1	NaN	1736743.0601715	NaN	1736744.0435663	1736744.56011718
41	19	1	0	90	36.1581920903955	36.241610738255	23	0.766721376059577	2	11	4	NaN	2	3	0.07020130164029	1	1	NaN	368	6	53	2	121	221	321	NaN	521	0.0104095700662583	2	1	NaN	1736745.8271113	NaN	1736746.8105097	1736747.32705653
41	19	1	0	90	36.1581920903955	36.241610738255	10	0.333357120025903	2	1	1	NaN	1	4	0.07020130164029	1	1	NaN	369	6	54	2	121	221	321	NaN	521	0.0102684425655752	1	1	NaN	1736748.1438969	NaN	1736749.1274018	1736749.64395816
41	19	1	0	90	36.1581920903955	36.241610738255	0	0	1	3	4	NaN	1	3	0.07020130164029	1	1	NaN	370	6	55	2	111	211	311	NaN	511	0.168859722558409	2	0	NaN	1736750.4608948	NaN	1736751.4443006	1736751.96085108
41	19	1	0	90	36.1581920903955	36.241610738255	20	0.666714240051806	2	1	5	NaN	1	3	0.07020130164029	1	1	NaN	371	6	56	2	121	221	321	NaN	521	0.0104060699231923	1	1	NaN	1736752.9444736	NaN	1736753.9278796	1736754.44441523
41	19	1	0	90	36.1581920903955	36.241610738255	13	0.433364256033674	2	8	2	NaN	2	4	0.07020130164029	1	1	NaN	372	6	57	2	121	221	321	NaN	521	0.103328722761944	1	0	NaN	1736755.2780441	NaN	1736756.2614217	1736756.77798508
41	19	1	0	90	36.1581920903955	36.241610738255	23	0.766721376059577	2	11	1	NaN	2	4	0.07020130164029	1	1	NaN	373	6	58	2	121	221	321	NaN	521	0.310345622710884	2	1	NaN	1736757.6949541	NaN	1736758.6783424	1736759.19488938
41	19	1	0	90	36.1581920903955	36.241610738255	9	0.300021408023313	2	12	2	NaN	2	5	0.07020130164029	1	1	NaN	374	6	59	2	121	221	321	NaN	521	0.164995670085773	2	1	NaN	1736760.3284037	NaN	1736761.3119312	1736761.82847743
41	19	1	0	90	36.1581920903955	36.241610738255	8	0.266685696020722	2	10	1	NaN	2	4	0.07020130164029	1	1	NaN	375	6	60	2	121	221	321	NaN	521	0.201290269847959	2	1	NaN	1736762.8121028	NaN	1736763.7955017	1736764.31206173
41	19	1	0	90	36.1581920903955	36.241610738255	8	0.266685696020722	2	10	1	NaN	2	4	0.07020130164029	1	1	NaN	376	6	61	2	121	221	321	NaN	521	0.172416895162314	2	1	NaN	1736765.3289067	NaN	1736766.3124289	1736766.8289715
41	19	1	0	90	36.1581920903955	36.241610738255	21	0.700049952054396	2	7	5	NaN	2	3	0.07020130164029	1	1	NaN	377	6	62	2	121	221	321	NaN	521	0.192967017646879	2	1	NaN	1736767.812482	NaN	1736768.7959855	1736769.31254178
41	19	1	0	90	36.1581920903955	36.241610738255	8	0.266685696020722	2	3	1	NaN	1	5	0.07020130164029	1	1	NaN	378	6	63	2	121	221	321	NaN	521	0.0103651275858283	1	1	NaN	1736770.3294178	NaN	1736771.3129167	1736771.82946697
41	19	1	0	90	36.1581920903955	36.241610738255	0	0	1	12	6	NaN	2	4	0.07020130164029	1	1	NaN	379	7	1	2	111	211	311	NaN	511	0.0103290325496346	1	0	NaN	1736781.1472124	NaN	1736782.1306473	1736782.64719657
41	19	1	0	90	36.1581920903955	36.241610738255	18	0.600042816046625	2	1	4	NaN	1	5	0.07020130164029	1	1	NaN	380	7	2	2	121	221	321	NaN	521	0.501618022564799	2	0	NaN	1736783.464143	NaN	1736784.4475275	1736784.96408438
41	19	1	0	90	36.1581920903955	36.241610738255	6	0.200014272015542	2	2	4	NaN	1	4	0.07020130164029	1	1	NaN	381	7	3	2	121	221	321	NaN	521	0.268566770013422	1	1	NaN	1736786.2809435	NaN	1736787.264471	1736787.78102853
41	19	1	0	90	36.1581920903955	36.241610738255	15	0.500035680038854	2	3	4	NaN	1	5	0.07020130164029	1	1	NaN	382	7	4	2	121	221	321	NaN	521	0.172734237741679	1	1	NaN	1736788.8646556	NaN	1736789.848181	1736790.36462006
41	19	1	0	90	36.1581920903955	36.241610738255	8	0.266685696020722	2	5	5	NaN	1	3	0.07020130164029	1	1	NaN	383	7	5	2	121	221	321	NaN	521	0.0103588800411671	1	1	NaN	1736791.3482533	NaN	1736792.3316534	1736792.84819212
41	19	1	0	90	36.1581920903955	36.241610738255	15	0.500035680038854	2	10	1	NaN	2	3	0.07020130164029	1	1	NaN	384	7	6	2	121	221	321	NaN	521	0.0103901226539165	2	1	NaN	1736793.681813	NaN	1736794.6651952	1736795.18175658
41	19	1	0	90	36.1581920903955	36.241610738255	20	0.666714240051806	2	8	4	NaN	2	4	0.07020130164029	1	1	NaN	385	7	7	2	121	221	321	NaN	521	0.478725269902498	2	1	NaN	1736795.9987092	NaN	1736796.9821204	1736797.49864853
41	19	1	0	90	36.1581920903955	36.241610738255	18	0.600042816046625	2	9	5	NaN	2	4	0.07020130164029	1	1	NaN	386	7	8	2	121	221	321	NaN	521	0.502801922615618	2	1	NaN	1736798.798857	NaN	1736799.7823672	1736800.29892178
41	19	1	0	90	36.1581920903955	36.241610738255	16	0.533371392041445	2	3	3	NaN	1	5	0.07020130164029	1	1	NaN	387	7	9	2	121	221	321	NaN	521	0.269903222564608	1	1	NaN	1736801.6159279	NaN	1736802.5993245	1736803.11586888
41	19	1	0	90	36.1581920903955	36.241610738255	9	0.300021408023313	2	8	2	NaN	2	4	0.07020130164029	1	1	NaN	388	7	10	2	121	221	321	NaN	521	0.150335322599858	2	1	NaN	1736804.1995017	NaN	1736805.1829377	1736805.69945158
41	19	1	0	90	36.1581920903955	36.241610738255	15	0.500035680038854	2	8	4	NaN	2	4	0.07020130164029	1	1	NaN	389	7	11	2	121	221	321	NaN	521	0.203385717468336	2	1	NaN	1736806.6664016	NaN	1736807.6498014	1736808.16635618
41	19	1	0	90	36.1581920903955	36.241610738255	11	0.366692832028493	2	10	3	NaN	2	5	0.07020130164029	1	1	NaN	390	7	12	2	121	221	321	NaN	521	0.498556722421199	2	1	NaN	1736809.4665557	NaN	1736810.450068	1736810.96663508
41	19	1	0	90	36.1581920903955	36.241610738255	9	0.300021408023313	2	5	3	NaN	1	3	0.07020130164029	1	1	NaN	391	7	13	2	121	221	321	NaN	521	0.553846169961616	1	1	NaN	1736812.2836415	NaN	1736813.2670533	1736813.78359213
41	19	1	0	90	36.1581920903955	36.241610738255	17	0.566707104044035	2	2	1	NaN	1	4	0.07020130164029	1	1	NaN	392	7	14	2	121	221	321	NaN	521	0.327162322588265	1	1	NaN	1736815.1505713	NaN	1736816.1339711	1736816.65052348
41	19	1	0	90	36.1581920903955	36.241610738255	7	0.233349984018132	2	1	1	NaN	1	4	0.07020130164029	1	1	NaN	393	7	15	2	121	221	321	NaN	521	0.122406417736784	1	1	NaN	1736818.0508345	NaN	1736819.0343085	1736819.55081128
41	19	1	0	90	36.1581920903955	36.241610738255	19	0.633378528049216	2	12	4	NaN	2	3	0.07020130164029	1	1	NaN	394	7	16	2	121	221	321	NaN	521	0.217408769996837	1	0	NaN	1736820.4843025	NaN	1736821.4678234	1736821.98439133
41	19	1	0	90	36.1581920903955	36.241610738255	17	0.566707104044035	2	3	6	NaN	1	5	0.07020130164029	1	1	NaN	395	7	17	2	121	221	321	NaN	521	0.0103915226645768	1	1	NaN	1736823.0346777	NaN	1736824.0180929	1736824.53464018
41	19	1	0	90	36.1581920903955	36.241610738255	25	0.833392800064757	2	4	2	NaN	1	5	0.07020130164029	1	1	NaN	396	7	18	2	121	221	321	NaN	521	0.397248422726989	1	1	NaN	1736825.3682813	NaN	1736826.3516335	1736826.86819798
41	19	1	0	90	36.1581920903955	36.241610738255	24	0.800057088062167	2	2	3	NaN	1	3	0.07020130164029	1	1	NaN	397	7	19	2	121	221	321	NaN	521	0.010454912437126	1	1	NaN	1736828.0851685	NaN	1736829.0685837	1736829.58512979
41	19	1	0	90	36.1581920903955	36.241610738255	18	0.600042816046625	2	1	2	NaN	1	4	0.07020130164029	1	1	NaN	398	7	20	2	121	221	321	NaN	521	0.0104037700220942	2	0	NaN	1736830.5354371	NaN	1736831.5188156	1736832.03536483
41	19	1	0	90	36.1581920903955	36.241610738255	0	0	1	6	5	NaN	1	3	0.07020130164029	1	1	NaN	399	7	21	2	111	211	311	NaN	511	0.0103955224622041	1	1	NaN	1736832.8689733	NaN	1736833.8523851	1736834.36893828
41	19	1	0	90	36.1581920903955	36.241610738255	24	0.800057088062167	2	11	3	NaN	2	3	0.07020130164029	1	1	NaN	400	7	22	2	121	221	321	NaN	521	0.010406669927761	1	0	NaN	1736835.2025898	NaN	1736836.1859379	1736836.70248903
41	19	1	0	90	36.1581920903955	36.241610738255	17	0.566707104044035	2	1	5	NaN	1	5	0.07020130164029	1	1	NaN	401	7	23	2	121	221	321	NaN	521	0.0104065700434148	1	1	NaN	1736837.5194036	NaN	1736838.5028418	1736839.01938673
41	19	1	0	90	36.1581920903955	36.241610738255	20	0.666714240051806	2	11	5	NaN	2	4	0.07020130164029	1	1	NaN	402	7	24	2	121	221	321	NaN	521	0.0103922225534916	1	0	NaN	1736839.8530107	NaN	1736840.8363805	1736841.35294608
41	19	1	0	90	36.1581920903955	36.241610738255	8	0.266685696020722	2	12	2	NaN	2	4	0.07020130164029	1	1	NaN	403	7	25	2	121	221	321	NaN	521	0.0186000226531178	2	1	NaN	1736842.1865782	NaN	1736843.1699668	1736843.68651538
41	19	1	0	90	36.1581920903955	36.241610738255	11	0.366692832028493	2	11	4	NaN	2	5	0.07020130164029	1	1	NaN	404	7	26	2	121	221	321	NaN	521	0.269248869968578	2	1	NaN	1736844.5201294	NaN	1736845.5035234	1736846.02007643
41	19	1	0	90	36.1581920903955	36.241610738255	19	0.633378528049216	2	1	4	NaN	1	4	0.07020130164029	1	1	NaN	405	7	27	2	121	221	321	NaN	521	0.927921969909221	1	1	NaN	1736848.8538509	NaN	1736849.8372891	1736850.35383603
41	19	1	0	90	36.1581920903955	36.241610738255	15	0.500035680038854	2	4	3	NaN	1	3	0.07020130164029	1	1	NaN	406	7	28	2	121	221	321	NaN	521	0.406705822562799	1	1	NaN	1736852.2708301	NaN	1736853.2542917	1736853.77084438
41	19	1	0	90	36.1581920903955	36.241610738255	21	0.700049952054396	2	12	5	NaN	2	4	0.07020130164029	1	1	NaN	407	7	29	2	121	221	321	NaN	521	0.523477870039642	2	1	NaN	1736856.9379029	NaN	1736857.921422	1736858.43796263
41	19	1	0	90	36.1581920903955	36.241610738255	6	0.200014272015542	2	6	6	NaN	1	4	0.07020130164029	1	1	NaN	408	7	30	2	121	221	321	NaN	521	0.0103937226813287	1	1	NaN	1736859.7881773	NaN	1736860.7718408	1736861.28824118
41	19	1	0	90	36.1581920903955	36.241610738255	17	0.566707104044035	2	11	2	NaN	2	3	0.07020130164029	1	1	NaN	409	7	31	2	121	221	321	NaN	521	0.276065317681059	2	1	NaN	1736862.1218598	NaN	1736863.1052556	1736863.62179638
41	19	1	0	90	36.1581920903955	36.241610738255	11	0.366692832028493	2	6	2	NaN	1	4	0.07020130164029	1	1	NaN	410	7	32	2	121	221	321	NaN	521	0.0104059225413948	2	0	NaN	1736864.70531	NaN	1736865.6888401	1736866.20539848
41	19	1	0	90	36.1581920903955	36.241610738255	14	0.466699968036264	2	7	6	NaN	2	5	0.07020130164029	1	1	NaN	411	7	33	2	121	221	321	NaN	521	0.0104209701530635	1	0	NaN	1736867.038973	NaN	1736868.0224089	1736868.53896033
41	19	1	0	90	36.1581920903955	36.241610738255	0	0	1	2	6	NaN	1	4	0.07020130164029	1	1	NaN	412	7	34	2	111	211	311	NaN	511	0.0102682425640523	2	0	NaN	1736869.3725622	NaN	1736870.3559561	1736870.87252136
41	19	1	0	90	36.1581920903955	36.241610738255	12	0.400028544031084	2	5	4	NaN	1	5	0.07020130164029	1	1	NaN	413	7	35	2	121	221	321	NaN	521	0.0103863750118762	1	1	NaN	1736871.8061048	NaN	1736872.7895995	1736873.30608822
41	19	1	0	90	36.1581920903955	36.241610738255	14	0.466699968036264	2	12	2	NaN	2	5	0.07020130164029	1	1	NaN	414	7	36	2	121	221	321	NaN	521	0.14650302240625	2	1	NaN	1736874.1230528	NaN	1736875.1064265	1736875.62297868
41	19	1	0	90	36.1581920903955	36.241610738255	9	0.300021408023313	2	7	5	NaN	2	3	0.07020130164029	1	1	NaN	415	7	37	2	121	221	321	NaN	521	0.0104137698654085	2	1	NaN	1736876.5899363	NaN	1736877.5733365	1736878.08988893
41	19	1	0	90	36.1581920903955	36.241610738255	12	0.400028544031084	2	2	2	NaN	1	4	0.07020130164029	1	1	NaN	416	7	38	2	121	221	321	NaN	521	0.0102536950726062	1	1	NaN	1736878.9233817	NaN	1736879.9069129	1736880.4234621
41	19	1	0	90	36.1581920903955	36.241610738255	20	0.666714240051806	2	11	2	NaN	2	3	0.07020130164029	1	1	NaN	417	7	39	2	121	221	321	NaN	521	0.0103123849257827	2	1	NaN	1736881.2570732	NaN	1736882.2404659	1736882.75702562
41	19	1	0	90	36.1581920903955	36.241610738255	16	0.533371392041445	2	1	3	NaN	1	3	0.07020130164029	1	1	NaN	418	7	40	2	121	221	321	NaN	521	0.0104093698319048	1	1	NaN	1736884.3906056	NaN	1736885.3741114	1736885.89064993
41	19	1	0	90	36.1581920903955	36.241610738255	13	0.433364256033674	2	4	2	NaN	1	4	0.07020130164029	1	1	NaN	419	7	41	2	121	221	321	NaN	521	0.553877817699686	1	1	NaN	1736886.7076946	NaN	1736887.6909819	1736888.20754748
41	19	1	0	90	36.1581920903955	36.241610738255	9	0.300021408023313	2	4	4	NaN	1	4	0.07020130164029	1	1	NaN	420	7	42	2	121	221	321	NaN	521	0.382241122657433	1	1	NaN	1736889.5912418	NaN	1736890.5746312	1736891.09116498
41	19	1	0	90	36.1581920903955	36.241610738255	0	0	1	5	1	NaN	1	5	0.07020130164029	1	1	NaN	421	7	43	2	111	211	311	NaN	511	0.0982589225750417	1	1	NaN	1736892.2915091	NaN	1736893.2748914	1736893.79143808
41	19	1	0	90	36.1581920903955	36.241610738255	19	0.633378528049216	2	8	5	NaN	2	4	0.07020130164029	1	1	NaN	422	7	44	2	121	221	321	NaN	521	0.353290217462927	2	1	NaN	1736894.7083841	NaN	1736895.6917792	1736896.20832988
41	19	1	0	90	36.1581920903955	36.241610738255	12	0.400028544031084	2	11	1	NaN	2	5	0.07020130164029	1	1	NaN	423	7	45	2	121	221	321	NaN	521	0.166068869875744	2	1	NaN	1736897.3753034	NaN	1736898.358726	1736898.87525873
41	19	1	0	90	36.1581920903955	36.241610738255	18	0.600042816046625	2	5	5	NaN	1	3	0.07020130164029	1	1	NaN	424	7	46	2	121	221	321	NaN	521	0.491026737727225	2	0	NaN	1736899.858896	NaN	1736900.84229	1736901.35884026
41	19	1	0	90	36.1581920903955	36.241610738255	9	0.300021408023313	2	6	2	NaN	1	3	0.07020130164029	1	1	NaN	425	7	47	2	121	221	321	NaN	521	0.0104265178088099	1	1	NaN	1736902.6758361	NaN	1736903.6592382	1736904.17578898
41	19	1	0	90	36.1581920903955	36.241610738255	25	0.833392800064757	2	12	2	NaN	2	3	0.07020130164029	1	1	NaN	426	7	48	2	121	221	321	NaN	521	0.0103129376657307	1	0	NaN	1736905.0094099	NaN	1736905.9927893	1736906.50934496
41	19	1	0	90	36.1581920903955	36.241610738255	22	0.733385664056987	2	6	1	NaN	1	3	0.07020130164029	1	1	NaN	427	7	49	2	121	221	321	NaN	521	0.0104098699521273	1	1	NaN	1736907.3429555	NaN	1736908.3263687	1736908.84290223
41	19	1	0	90	36.1581920903955	36.241610738255	20	0.666714240051806	2	12	2	NaN	2	4	0.07020130164029	1	1	NaN	428	7	50	2	121	221	321	NaN	521	0.0103919224347919	2	1	NaN	1736909.6765226	NaN	1736910.6599152	1736911.17647378
41	19	1	0	90	36.1581920903955	36.241610738255	14	0.466699968036264	2	10	5	NaN	2	5	0.07020130164029	1	1	NaN	429	7	51	2	121	221	321	NaN	521	0.0104022226296365	2	1	NaN	1736912.0100934	NaN	1736912.9934898	1736913.51004048
41	19	1	0	90	36.1581920903955	36.241610738255	24	0.800057088062167	2	2	2	NaN	1	5	0.07020130164029	1	1	NaN	430	7	52	2	121	221	321	NaN	521	0.0103967227041721	1	1	NaN	1736914.3268519	NaN	1736915.310373	1736915.82693198
41	19	1	0	90	36.1581920903955	36.241610738255	15	0.500035680038854	2	12	1	NaN	2	4	0.07020130164029	1	1	NaN	431	7	53	2	121	221	321	NaN	521	0.0104114699643105	2	1	NaN	1736916.6605501	NaN	1736917.6439456	1736918.16049033
41	19	1	0	90	36.1581920903955	36.241610738255	17	0.566707104044035	2	5	5	NaN	1	3	0.07020130164029	1	1	NaN	432	7	54	2	121	221	321	NaN	521	0.0104100699536502	1	1	NaN	1736918.9941203	NaN	1736919.9774974	1736920.49405273
41	19	1	0	90	36.1581920903955	36.241610738255	6	0.200014272015542	2	4	4	NaN	1	4	0.07020130164029	1	1	NaN	433	7	55	2	121	221	321	NaN	521	0.0104166697710752	2	0	NaN	1736921.3108745	NaN	1736922.2943903	1736922.81095163
41	19	1	0	90	36.1581920903955	36.241610738255	13	0.433364256033674	2	7	5	NaN	2	3	0.07020130164029	1	1	NaN	434	7	56	2	121	221	321	NaN	521	0.0104000226128846	2	1	NaN	1736923.644563	NaN	1736924.6279429	1736925.14451098
41	19	1	0	90	36.1581920903955	36.241610738255	13	0.433364256033674	2	10	1	NaN	2	3	0.07020130164029	1	1	NaN	435	7	57	2	121	221	321	NaN	521	0.0104090699460357	2	1	NaN	1736925.9614584	NaN	1736926.9448456	1736927.46140093
41	19	1	0	90	36.1581920903955	36.241610738255	18	0.600042816046625	2	3	6	NaN	1	3	0.07020130164029	1	1	NaN	436	7	58	2	121	221	321	NaN	521	0.0104116699658334	2	0	NaN	1736928.2950288	NaN	1736929.2784118	1736929.79498763
41	19	1	0	90	36.1581920903955	36.241610738255	10	0.333357120025903	2	6	4	NaN	1	3	0.07020130164029	1	1	NaN	437	7	59	2	121	221	321	NaN	521	0.0104042699094862	1	1	NaN	1736930.628572	NaN	1736931.611984	1736932.12852993
41	19	1	0	90	36.1581920903955	36.241610738255	14	0.466699968036264	2	11	6	NaN	2	4	0.07020130164029	1	1	NaN	438	7	60	2	121	221	321	NaN	521	0.010406022425741	1	0	NaN	1736932.9621536	NaN	1736933.9455298	1736934.46209318
41	19	1	0	90	36.1581920903955	36.241610738255	7	0.233349984018132	2	10	2	NaN	2	3	0.07020130164029	1	1	NaN	439	7	61	2	121	221	321	NaN	521	0.0104159698821604	2	1	NaN	1736935.2790453	NaN	1736936.2624398	1736936.77898983
41	19	1	0	90	36.1581920903955	36.241610738255	19	0.633378528049216	2	9	5	NaN	2	4	0.07020130164029	1	1	NaN	440	7	62	2	121	221	321	NaN	521	0.13735412247479	2	1	NaN	1736937.612613	NaN	1736938.5959952	1736939.11254108
41	19	1	0	90	36.1581920903955	36.241610738255	19	0.633378528049216	2	10	6	NaN	2	5	0.07020130164029	1	1	NaN	441	7	63	2	121	221	321	NaN	521	0.294852470047772	1	0	NaN	1736940.0627176	NaN	1736941.0462398	1736941.56280873
41	19	1	0	90	36.1581920903955	36.241610738255	22	0.733385664056987	2	3	6	NaN	1	5	0.07020130164029	1	1	NaN	442	8	1	2	121	221	321	NaN	521	0.389684222638607	1	1	NaN	1736951.6638544	NaN	1736952.6474083	1736953.16393138
41	19	1	0	90	36.1581920903955	36.241610738255	23	0.766721376059577	2	8	3	NaN	2	4	0.07020130164029	1	1	NaN	443	8	2	2	121	221	321	NaN	521	0.217076969798654	2	1	NaN	1736954.3807873	NaN	1736955.3642912	1736955.88085163
41	19	1	0	90	36.1581920903955	36.241610738255	19	0.633378528049216	2	6	4	NaN	1	3	0.07020130164029	1	1	NaN	444	8	3	2	121	221	321	NaN	521	0.0104351174086332	1	1	NaN	1736956.9144903	NaN	1736957.8978968	1736958.41444078
41	19	1	0	90	36.1581920903955	36.241610738255	9	0.300021408023313	2	6	4	NaN	1	3	0.07020130164029	1	1	NaN	445	8	4	2	121	221	321	NaN	521	0.0103907226584852	1	1	NaN	1736959.2480645	NaN	1736960.231452	1736960.74800658
41	19	1	0	90	36.1581920903955	36.241610738255	7	0.233349984018132	2	12	1	NaN	2	5	0.07020130164029	1	1	NaN	446	8	5	2	121	221	321	NaN	521	0.0104017700068653	2	1	NaN	1736961.5816226	NaN	1736962.5650192	1736963.08155933
41	19	1	0	90	36.1581920903955	36.241610738255	8	0.266685696020722	2	2	4	NaN	1	3	0.07020130164029	1	1	NaN	447	8	6	2	121	221	321	NaN	521	0.0104029700160027	1	1	NaN	1736964.1985471	NaN	1736965.1819676	1736965.69848393
41	19	1	0	90	36.1581920903955	36.241610738255	14	0.466699968036264	2	11	4	NaN	2	3	0.07020130164029	1	1	NaN	448	8	7	2	121	221	321	NaN	521	0.0104040226433426	2	1	NaN	1736966.5321171	NaN	1736967.5154946	1736968.03205548
41	19	1	0	90	36.1581920903955	36.241610738255	0	0	1	9	3	NaN	2	5	0.07020130164029	1	1	NaN	449	8	8	2	111	211	311	NaN	511	0.0103925226721913	2	1	NaN	1736969.2489107	NaN	1736970.2324237	1736970.74898938
41	19	1	0	90	36.1581920903955	36.241610738255	6	0.200014272015542	2	5	1	NaN	1	5	0.07020130164029	1	1	NaN	450	8	9	2	121	221	321	NaN	521	0.0103979224804789	1	1	NaN	1736971.5825828	NaN	1736972.5660053	1736973.08257158
41	19	1	0	90	36.1581920903955	36.241610738255	25	0.833392800064757	2	5	2	NaN	1	4	0.07020130164029	1	1	NaN	451	8	10	2	121	221	321	NaN	521	0.01042141742073	1	1	NaN	1736973.9161637	NaN	1736974.8995887	1736975.41610408
41	19	1	0	90	36.1581920903955	36.241610738255	17	0.566707104044035	2	1	3	NaN	1	4	0.07020130164029	1	1	NaN	452	8	11	2	121	221	321	NaN	521	0.0103572276420891	1	1	NaN	1736976.2497203	NaN	1736977.2331231	1736977.74968027
41	19	1	0	90	36.1581920903955	36.241610738255	15	0.500035680038854	2	2	4	NaN	1	3	0.07020130164029	1	1	NaN	453	8	12	2	121	221	321	NaN	521	0.230764870066196	1	1	NaN	1736978.5833021	NaN	1736979.5666811	1736980.08324033
41	19	1	0	90	36.1581920903955	36.241610738255	9	0.300021408023313	2	7	4	NaN	2	3	0.07020130164029	1	1	NaN	454	8	13	2	121	221	321	NaN	521	0.231789417564869	2	1	NaN	1736981.1502087	NaN	1736982.1336116	1736982.65015518
41	19	1	0	90	36.1581920903955	36.241610738255	0	0	1	1	6	NaN	1	4	0.07020130164029	1	1	NaN	455	8	14	2	111	211	311	NaN	511	0.0104092699475586	1	1	NaN	1736983.7005034	NaN	1736984.6838502	1736985.20039823
41	19	1	0	90	36.1581920903955	36.241610738255	17	0.566707104044035	2	9	6	NaN	2	3	0.07020130164029	1	1	NaN	456	8	15	2	121	221	321	NaN	521	0.0102805900387466	2	1	NaN	1736986.0340239	NaN	1736987.0174219	1736987.53396681
41	19	1	0	90	36.1581920903955	36.241610738255	16	0.533371392041445	2	6	6	NaN	1	3	0.07020130164029	1	1	NaN	457	8	16	2	121	221	321	NaN	521	0.198032969841734	1	1	NaN	1736988.3675993	NaN	1736989.3509668	1736989.86753073
41	19	1	0	90	36.1581920903955	36.241610738255	18	0.600042816046625	2	6	6	NaN	1	4	0.07020130164029	1	1	NaN	458	8	17	2	121	221	321	NaN	521	0.0103893226478249	1	1	NaN	1736990.8844833	NaN	1736991.8679007	1736992.38444538
41	19	1	0	90	36.1581920903955	36.241610738255	21	0.700049952054396	2	4	6	NaN	1	3	0.07020130164029	1	1	NaN	459	8	18	2	121	221	321	NaN	521	0.0103787749540061	1	1	NaN	1736993.2180585	NaN	1736994.201443	1736994.71800123
41	19	1	0	90	36.1581920903955	36.241610738255	19	0.633378528049216	2	1	2	NaN	1	5	0.07020130164029	1	1	NaN	460	8	19	2	121	221	321	NaN	521	0.294762822799385	1	1	NaN	1736995.5349509	NaN	1736996.5183407	1736997.03490498
41	19	1	0	90	36.1581920903955	36.241610738255	23	0.766721376059577	2	9	4	NaN	2	5	0.07020130164029	1	1	NaN	461	8	20	2	121	221	321	NaN	521	0.350864917505533	2	1	NaN	1736998.1351996	NaN	1736999.118606	1736999.63514738
